timestamp millis,GyrX,GyrY,GyrZ,AccX,AccY,AccZ,Complementary_Filter_Angle_Calculated,Complementary_Filter_Angle,Kalman_Filter_Angle
11022.0,0.91,0.31,-0.82,0.07,-0.98,0.17,0.0,-78.47,-79.12
11087.0,0.88,0.33,-0.82,0.06,-0.98,0.17,0.0,-78.49,-79.19
11154.0,0.86,0.34,-0.88,0.06,-0.98,0.18,0.0,-78.47,-79.16
11219.0,0.88,0.45,-0.98,0.07,-0.98,0.18,0.0,-78.45,-79.11
11286.0,0.91,0.47,-0.98,0.07,-0.98,0.18,0.0,-78.43,-79.08
11354.0,0.88,0.34,-0.92,0.07,-0.98,0.17,0.0,-78.45,-79.13
11419.0,0.9,0.3,-0.89,0.07,-0.98,0.18,0.0,-78.42,-79.08
11485.0,0.86,0.35,-0.9,0.06,-0.98,0.17,0.0,-78.45,-79.16
11552.0,0.87,0.43,-0.99,0.07,-0.98,0.18,0.0,-78.45,-79.16
11619.0,0.85,0.47,-0.96,0.07,-0.98,0.17,0.0,-78.44,-79.16
11684.0,0.86,0.31,-0.92,0.07,-0.98,0.17,0.0,-78.47,-79.21
11751.0,0.87,0.31,-0.85,0.07,-0.98,0.18,0.0,-78.44,-79.15
11816.0,0.87,0.27,-0.79,0.06,-0.98,0.17,0.0,-78.45,-79.18
11884.0,0.87,0.39,-0.83,0.07,-0.98,0.17,0.0,-78.45,-79.19
11951.0,0.86,0.44,-0.87,0.06,-0.98,0.17,0.0,-78.46,-79.21
12016.0,0.85,0.39,-0.86,0.06,-0.99,0.19,0.0,-78.43,-79.14
12084.0,0.89,0.45,-0.92,0.06,-0.98,0.17,0.0,-78.44,-79.18
12150.0,0.81,0.53,-0.97,0.06,-0.98,0.17,0.0,-78.46,-79.22
12216.0,0.83,0.55,-1.03,0.06,-0.98,0.18,0.0,-78.47,-79.23
12281.0,0.85,0.41,-0.97,0.08,-0.98,0.18,0.0,-78.45,-79.18
12348.0,0.85,0.24,-0.86,0.07,-0.98,0.17,0.0,-78.47,-79.23
12416.0,0.8,0.23,-0.85,0.06,-0.98,0.17,0.0,-78.48,-79.26
12481.0,0.81,0.25,-0.93,0.06,-0.98,0.17,0.0,-78.51,-79.32
12548.0,0.76,0.43,-1.01,0.07,-0.98,0.17,0.0,-78.53,-79.36
12613.0,0.8,0.4,-0.98,0.07,-0.98,0.16,0.0,-78.57,-79.42
12680.0,0.85,0.31,-0.88,0.07,-0.98,0.16,0.0,-78.6,-79.49
12747.0,0.89,0.27,-0.89,0.06,-0.98,0.17,0.0,-78.63,-79.54
12813.0,0.89,0.37,-0.91,0.06,-0.98,0.17,0.0,-78.66,-79.59
12879.0,0.92,0.4,-0.95,0.06,-0.98,0.16,0.0,-78.69,-79.67
12947.0,0.91,0.45,-0.96,0.06,-0.98,0.16,0.0,-78.72,-79.72
13012.0,0.97,0.47,-1.01,0.06,-0.98,0.17,0.0,-78.72,-79.7
13079.0,0.96,0.42,-0.99,0.07,-0.98,0.17,0.0,-78.71,-79.65
13145.0,0.97,0.35,-0.92,0.07,-0.98,0.16,0.0,-78.72,-79.67
13213.0,0.92,0.38,-0.95,0.06,-0.98,0.17,0.0,-78.7,-79.61
13279.0,0.92,0.3,-0.91,0.07,-0.98,0.17,0.0,-78.69,-79.57
13345.0,0.87,0.31,-0.85,0.06,-0.98,0.18,0.0,-78.68,-79.53
13411.0,0.92,0.26,-0.89,0.06,-0.98,0.17,0.0,-78.68,-79.53
13478.0,0.92,0.4,-0.97,0.06,-0.98,0.17,0.0,-78.7,-79.58
13545.0,0.97,0.4,-0.94,0.07,-0.98,0.17,0.0,-78.68,-79.52
13611.0,0.93,0.38,-0.91,0.07,-0.98,0.17,0.0,-78.67,-79.5
13677.0,0.95,0.39,-0.97,0.06,-0.98,0.18,0.0,-78.65,-79.44
13745.0,0.83,0.34,-0.92,0.06,-0.98,0.17,0.0,-78.65,-79.45
13810.0,0.85,0.3,-0.92,0.06,-0.98,0.17,0.0,-78.66,-79.46
13877.0,0.85,0.37,-0.95,0.06,-0.98,0.17,0.0,-78.68,-79.5
13944.0,0.82,0.5,-1.04,0.06,-0.98,0.17,0.0,-78.7,-79.54
14011.0,0.89,0.5,-1.06,0.08,-0.98,0.18,0.0,-78.66,-79.44
14076.0,0.91,0.44,-1.02,0.06,-0.98,0.17,0.0,-78.68,-79.49
14143.0,0.87,0.34,-0.99,0.07,-0.98,0.18,0.0,-78.65,-79.42
14211.0,0.87,0.27,-0.84,0.08,-0.98,0.17,0.0,-78.63,-79.38
14276.0,0.85,0.23,-0.78,0.07,-0.98,0.17,0.0,-78.64,-79.39
14343.0,0.82,0.3,-0.83,0.07,-0.98,0.17,0.0,-78.64,-79.4
14408.0,0.83,0.34,-0.91,0.06,-0.98,0.17,0.0,-78.67,-79.46
14476.0,0.82,0.41,-0.98,0.06,-0.98,0.17,0.0,-78.66,-79.44
14542.0,0.88,0.34,-0.95,0.07,-0.98,0.17,0.0,-78.66,-79.44
14608.0,0.86,0.4,-0.94,0.06,-0.98,0.17,0.0,-78.66,-79.43
14674.0,0.86,0.42,-0.96,0.06,-0.98,0.18,0.0,-78.65,-79.4
14742.0,0.86,0.55,-1.01,0.07,-0.98,0.17,0.0,-78.66,-79.44
14808.0,0.87,0.37,-0.92,0.07,-0.98,0.17,0.0,-78.68,-79.47
14874.0,0.83,0.25,-0.87,0.06,-0.98,0.17,0.0,-78.69,-79.5
14940.0,0.9,0.36,-0.92,0.06,-0.99,0.17,0.0,-78.71,-79.54
15007.0,0.85,0.43,-0.96,0.06,-0.98,0.17,0.0,-78.7,-79.51
15074.0,0.91,0.46,-0.96,0.07,-0.98,0.17,0.0,-78.71,-79.54
15139.0,0.89,0.39,-0.94,0.07,-0.98,0.18,0.0,-78.69,-79.48
15206.0,0.92,0.35,-0.95,0.06,-0.98,0.17,0.0,-78.69,-79.49
15273.0,0.91,0.34,-0.97,0.06,-0.98,0.18,0.0,-78.67,-79.45
15339.0,0.87,0.36,-0.92,0.07,-0.98,0.17,0.0,-78.66,-79.42
15406.0,0.91,0.3,-0.9,0.06,-0.99,0.17,0.0,-78.66,-79.42
15471.0,0.88,0.3,-0.9,0.06,-0.98,0.18,0.0,-78.65,-79.39
15540.0,0.89,0.36,-0.91,0.06,-0.98,0.18,0.0,-78.63,-79.36
15605.0,0.89,0.37,-0.92,0.06,-0.98,0.17,0.0,-78.64,-79.38
15671.0,0.91,0.4,-0.89,0.07,-0.98,0.17,0.0,-78.63,-79.37
15737.0,0.86,0.4,-0.92,0.06,-0.98,0.17,0.0,-78.62,-79.36
15805.0,0.95,0.44,-0.94,0.06,-0.98,0.17,0.0,-78.64,-79.41
15872.0,0.97,0.33,-0.92,0.06,-0.98,0.18,0.0,-78.61,-79.34
15937.0,0.91,0.23,-0.98,0.06,-0.98,0.18,0.0,-78.58,-79.29
16003.0,0.89,0.38,-1.03,0.06,-0.98,0.17,0.0,-78.59,-79.3
16071.0,0.8,0.56,-1.04,0.06,-0.98,0.17,0.0,-78.58,-79.3
16137.0,0.79,0.54,-1.09,0.06,-0.98,0.18,0.0,-78.58,-79.28
16202.0,0.87,0.46,-1.08,0.08,-0.98,0.16,0.0,-78.6,-79.33
16271.0,0.96,0.18,-0.94,0.07,-0.98,0.17,0.0,-78.59,-79.32
16336.0,0.89,0.27,-0.89,0.07,-0.98,0.17,0.0,-78.57,-79.3
16403.0,0.92,0.4,-0.94,0.06,-0.98,0.17,0.0,-78.58,-79.31
16468.0,0.86,0.56,-1.02,0.06,-0.98,0.17,0.0,-78.59,-79.35
16535.0,0.83,0.6,-1.12,0.07,-0.97,0.2,0.0,-78.49,-79.1
16603.0,0.84,0.63,-1.1,0.08,-0.98,0.17,0.0,-78.47,-79.08
16668.0,0.82,0.5,-0.95,0.08,-0.98,0.16,0.0,-78.5,-79.16
16735.0,0.87,0.41,-0.95,0.07,-0.98,0.18,0.0,-78.48,-79.13
16802.0,0.89,0.37,-0.98,0.07,-0.98,0.18,0.0,-78.47,-79.11
16868.0,0.88,0.35,-1.01,0.08,-0.98,0.17,0.0,-78.46,-79.1
16934.0,0.87,0.53,-1.14,0.07,-0.98,0.17,0.0,-78.46,-79.13
17000.0,0.83,0.37,-1.18,0.08,-0.98,0.17,0.0,-78.45,-79.11
17065.0,0.84,0.21,-0.93,0.08,-0.98,0.16,0.0,-78.48,-79.18
17133.0,0.92,0.18,-0.91,0.07,-0.98,0.16,0.0,-78.51,-79.25
17200.0,0.94,0.23,-0.92,0.07,-0.98,0.17,0.0,-78.5,-79.26
17265.0,0.91,0.25,-0.85,0.07,-0.98,0.18,0.0,-78.48,-79.2
17333.0,0.89,0.28,-0.9,0.07,-0.98,0.17,0.0,-78.48,-79.21
17399.0,0.84,0.53,-0.95,0.12,-0.97,0.2,0.0,-78.29,-78.78
17465.0,0.77,0.21,-0.9,0.07,-0.98,0.18,0.0,-78.31,-78.83
17531.0,0.79,0.25,-0.82,0.07,-0.98,0.17,0.0,-78.33,-78.89
17597.0,0.81,0.57,-1.03,0.06,-0.98,0.17,0.0,-78.36,-78.99
17665.0,0.87,0.48,-1.22,0.07,-0.98,0.17,0.0,-78.38,-79.06
17731.0,0.86,0.5,-1.25,0.09,-0.98,0.18,0.0,-78.34,-78.97
17797.0,0.99,0.3,-1.02,0.1,-0.98,0.17,0.0,-78.3,-78.9
17864.0,0.88,-0.17,-0.61,0.09,-0.97,0.18,0.0,-78.24,-78.77
17931.0,0.95,0.19,-0.72,0.05,-0.98,0.16,0.0,-78.32,-79.0
17996.0,0.97,0.78,-1.15,0.07,-0.99,0.17,0.0,-78.36,-79.11
18063.0,1.08,0.53,-1.06,0.09,-0.97,0.18,0.0,-78.3,-78.99
18128.0,0.95,0.21,-0.85,0.09,-0.98,0.17,0.0,-78.28,-78.96
18196.0,0.99,-0.17,-0.73,0.06,-0.99,0.18,0.0,-78.3,-79.02
18263.0,0.93,0.2,-0.91,0.06,-0.97,0.17,0.0,-78.31,-79.06
18328.0,0.9,0.3,-1.07,0.08,-0.98,0.18,0.0,-78.3,-79.02
18396.0,0.95,0.29,-0.92,0.1,-0.97,0.17,0.0,-78.25,-78.93
18462.0,0.9,0.27,-0.85,0.07,-0.98,0.18,0.0,-78.24,-78.93
18528.0,0.82,0.4,-0.95,0.07,-0.98,0.17,0.0,-78.27,-78.99
18594.0,0.79,0.48,-1.01,0.09,-0.98,0.18,0.0,-78.25,-78.94
18660.0,0.89,0.28,-0.81,0.09,-0.98,0.17,0.0,-78.25,-78.94
18727.0,0.71,0.16,-0.94,0.06,-0.98,0.18,0.0,-78.26,-78.96
18794.0,0.76,0.5,-1.04,0.08,-0.98,0.18,0.0,-78.24,-78.93
18860.0,0.85,0.6,-1.05,0.08,-0.98,0.17,0.0,-78.24,-78.92
18927.0,0.84,0.45,-1.02,0.08,-0.98,0.17,0.0,-78.24,-78.93
18994.0,0.86,0.24,-0.99,0.08,-0.98,0.18,0.0,-78.22,-78.9
19059.0,0.88,0.41,-1.05,0.09,-0.98,0.18,0.0,-78.2,-78.85
19126.0,0.88,0.62,-0.93,0.11,-0.98,0.18,0.0,-78.14,-78.72
19191.0,0.86,0.45,-0.85,0.09,-0.98,0.16,0.0,-78.17,-78.81
19259.0,0.86,0.11,-0.87,0.07,-0.98,0.18,0.0,-78.18,-78.84
19325.0,0.89,0.27,-0.87,0.08,-0.98,0.17,0.0,-78.19,-78.89
19391.0,0.92,0.37,-0.89,0.08,-0.98,0.18,0.0,-78.18,-78.88
19459.0,0.85,0.34,-0.89,0.08,-0.98,0.18,0.0,-78.18,-78.87
19525.0,0.82,0.34,-0.9,0.07,-0.98,0.17,0.0,-78.2,-78.94
19591.0,0.89,0.44,-0.98,0.08,-0.98,0.17,0.0,-78.21,-78.96
19657.0,0.89,0.34,-1.02,0.08,-0.97,0.18,0.0,-78.2,-78.94
19723.0,0.86,0.44,-0.89,0.1,-0.98,0.17,0.0,-78.17,-78.86
19790.0,0.82,0.44,-0.59,0.08,-0.97,0.18,0.0,-78.14,-78.8
19857.0,0.7,0.69,-0.56,0.08,-0.98,0.16,0.0,-78.18,-78.89
19922.0,0.92,0.19,-0.6,0.07,-0.98,0.16,0.0,-78.23,-79.01
19990.0,0.98,0.05,-0.76,0.04,-0.98,0.18,0.0,-78.26,-79.09
20057.0,1.26,0.21,-1.12,0.06,-0.99,0.17,-0.04,-78.29,-79.2
20122.0,0.96,0.45,-1.22,0.07,-0.97,0.18,-0.01,-78.27,-79.13
20189.0,1.15,0.24,-1.21,0.08,-0.97,0.18,0.04,-78.22,-79.03
20254.0,1.22,0.08,-1.02,0.07,-0.98,0.18,0.06,-78.2,-79.01
20323.0,1.42,0.36,-0.92,0.08,-0.98,0.17,0.07,-78.19,-79.03
20388.0,1.71,-0.15,-0.75,0.09,-0.98,0.19,-0.05,-78.07,-78.82
20455.0,1.73,-0.53,-0.32,0.1,-0.96,0.2,-0.24,-77.87,-78.44
20523.0,1.82,-0.9,0.27,0.1,-0.97,0.2,-0.42,-77.7,-78.14
20589.0,1.86,-0.25,0.66,0.06,-0.97,0.21,-0.57,-77.55,-77.91
20655.0,2.36,-1.15,1.15,0.05,-0.97,0.21,-0.73,-77.39,-77.72
20722.0,2.12,-2.19,0.79,0.03,-0.96,0.21,-0.83,-77.29,-77.64
20789.0,2.25,-1.43,0.27,-0.05,-0.94,0.25,-0.52,-76.98,-77.08
20855.0,1.82,-0.84,-0.5,-0.05,-1.0,0.29,-0.18,-76.64,-76.45
20923.0,1.34,0.78,-1.24,0.04,-0.99,0.26,-0.38,-76.45,-76.15
20989.0,0.47,3.37,1.25,0.17,-0.93,0.28,-0.82,-76.0,-75.19
21055.0,0.86,2.76,4.05,0.02,-0.96,0.26,-0.96,-75.86,-75.03
21124.0,0.65,1.79,4.51,-0.11,-0.96,0.22,-0.9,-75.81,-75.05
21189.0,1.16,1.85,4.36,-0.08,-1.0,0.28,-0.69,-75.59,-74.75
21256.0,0.85,1.49,5.42,-0.14,-0.99,0.29,-0.39,-75.3,-74.23
21321.0,0.69,3.04,5.35,-0.27,-1.05,0.25,-0.03,-74.94,-73.56
21388.0,-0.53,2.93,5.18,-0.3,-1.0,0.25,0.37,-74.53,-72.73
21455.0,-0.42,4.09,6.38,-0.14,-1.12,0.31,0.45,-74.46,-72.72
21521.0,3.54,10.6,9.13,0.27,-1.51,0.39,0.09,-74.1,-72.39
21586.0,-9.08,12.53,14.22,-0.27,-1.15,0.57,0.44,-73.74,-70.97
21654.0,1.34,-2.5,7.53,-0.53,-0.54,0.16,2.6,-71.58,-66.35
21721.0,0.02,3.81,-5.96,-0.01,-0.31,-0.13,2.92,-71.27,-66.19
21786.0,3.64,-11.46,-15.96,-0.3,-0.48,0.15,4.29,-69.89,-63.85
21853.0,-0.08,-12.73,-26.66,-0.14,-0.85,0.15,3.81,-70.37,-65.63
21918.0,1.5,-14.46,-34.41,-0.1,-1.23,0.25,3.4,-70.79,-67.24
21986.0,-0.29,-14.35,-33.89,-0.37,-1.37,0.28,3.34,-70.84,-67.71
22052.0,1.18,3.33,-17.66,-0.69,-0.92,0.5,5.06,-69.13,-64.12
22118.0,-4.17,2.96,11.85,0.58,-0.76,0.45,3.68,-67.75,-61.11
22187.0,0.0,-17.69,9.08,0.08,-1.49,-0.16,4.76,-68.83,-64.33
22252.0,9.87,8.02,9.11,0.18,-0.73,0.24,4.05,-68.11,-64.03
22319.0,3.74,-1.07,6.02,0.26,-0.96,0.3,3.79,-67.86,-64.19
22386.0,-2.82,5.05,3.63,0.12,-0.97,0.2,4.6,-68.66,-66.19
22453.0,2.15,1.47,6.43,0.07,-0.97,0.27,4.81,-68.87,-67.13
22518.0,1.34,1.6,5.86,0.02,-0.95,0.22,5.28,-69.35,-68.53
22585.0,3.57,1.82,6.47,-0.04,-0.96,0.28,5.36,-69.42,-69.1
22650.0,1.31,2.06,6.34,-0.12,-1.02,0.27,5.6,-69.67,-69.79
22719.0,-0.43,4.19,6.96,-0.05,-1.06,0.23,6.18,-70.24,-71.06
22785.0,-1.79,2.16,11.66,-0.06,-1.17,0.33,6.56,-70.63,-71.69
22850.0,3.05,10.25,13.73,0.43,-1.77,0.47,6.35,-70.41,-71.31
22918.0,-21.69,4.61,20.57,-0.32,-1.18,0.69,5.9,-70.86,-70.27
22984.0,-6.18,-3.54,7.48,-0.81,-0.23,0.08,9.36,-67.39,-61.64
23050.0,-4.21,-9.71,-6.85,0.01,-0.2,-0.02,7.96,-68.8,-65.18
23116.0,6.11,-11.25,-19.15,-0.3,-0.49,0.19,9.38,-67.38,-62.79
23182.0,-1.39,-11.36,-30.7,-0.19,-0.74,0.2,9.16,-67.6,-63.69
23250.0,-0.27,-10.07,-39.85,-0.16,-1.23,0.24,8.5,-68.26,-65.6
23316.0,3.63,-10.98,-35.9,-0.56,-1.81,0.49,8.77,-67.99,-65.58
23383.0,11.1,7.72,-5.5,-0.02,-1.18,0.2,8.56,-68.2,-67.27
23450.0,3.76,-14.95,10.96,0.94,-1.1,-0.41,6.84,-66.49,-63.68
23517.0,3.15,-5.88,11.33,-0.51,-1.43,0.45,7.18,-66.15,-63.46
23583.0,12.86,1.28,6.99,-0.23,-1.27,0.2,7.24,-66.09,-64.72
23651.0,0.05,-4.5,5.97,0.01,-1.01,0.42,7.15,-66.18,-65.06
23716.0,0.17,4.14,5.28,0.3,-0.93,0.28,7.15,-66.18,-65.17
23783.0,2.45,2.82,8.27,0.11,-0.97,0.18,6.49,-66.84,-67.03
23851.0,1.98,1.56,8.08,-0.09,-0.95,0.27,6.14,-67.19,-67.97
23917.0,3.53,0.79,6.3,-0.19,-1.04,0.33,6.2,-67.13,-68.05
23983.0,-1.92,1.7,5.69,-0.1,-1.05,0.26,5.53,-67.8,-69.33
24050.0,-7.24,-0.75,8.36,0.11,-1.15,0.2,4.31,-69.02,-71.35
24115.0,-0.81,9.72,14.4,0.22,-1.43,0.21,3.64,-69.69,-72.58
24182.0,-12.52,-3.08,18.44,-0.11,-1.41,0.75,3.43,-69.9,-71.64
24249.0,-11.05,-6.53,12.43,-0.37,-0.35,0.24,4.94,-68.39,-66.88
24314.0,-6.73,-8.96,-0.66,-0.25,-0.28,0.11,6.14,-67.19,-63.68
24383.0,0.96,-6.69,-12.76,0.02,-0.6,-0.02,4.82,-68.51,-67.23
24449.0,0.82,-12.17,-21.56,-0.23,-0.82,-0.04,4.49,-68.85,-68.22
24515.0,-0.26,-15.33,-27.9,-0.53,-0.97,0.28,5.22,-68.11,-66.56
24583.0,1.5,-3.94,-30.94,-0.35,-1.11,0.27,5.31,-68.02,-66.64
24648.0,1.82,5.45,-31.02,-0.53,-1.29,0.32,5.66,-67.67,-66.11
24715.0,7.23,20.38,-21.61,-0.21,-1.1,0.13,5.41,-67.92,-67.48
24780.0,-4.99,7.87,9.17,-0.27,-1.05,0.14,4.7,-68.63,-68.72
24847.0,8.95,2.89,2.55,0.41,-1.56,-0.3,5.01,-68.32,-68.75
24914.0,-10.95,-4.0,14.8,-0.27,-0.9,0.02,3.97,-69.36,-70.13
24981.0,-8.95,3.77,8.02,-0.0,-0.85,0.33,3.46,-69.87,-70.41
25048.0,-3.7,1.68,5.64,0.04,-0.91,0.36,3.57,-69.97,-70.27
25115.0,1.85,7.47,4.16,0.03,-0.93,0.38,3.29,-69.69,-69.75
25181.0,1.16,6.11,3.41,0.02,-0.95,0.35,3.21,-69.61,-69.64
25247.0,0.86,5.21,3.6,-0.08,-0.96,0.36,3.3,-69.52,-69.5
25315.0,-0.12,4.15,2.98,-0.04,-0.87,0.36,3.42,-69.4,-69.19
25381.0,0.96,-0.52,3.27,-0.22,-1.0,0.32,3.5,-69.31,-69.1
25447.0,-0.77,2.43,3.36,-0.16,-1.0,0.31,3.34,-69.47,-69.43
25515.0,-1.12,3.71,5.06,-0.1,-0.99,0.38,3.35,-69.47,-69.32
25579.0,4.04,6.68,7.93,0.06,-1.19,0.23,2.96,-69.86,-70.59
25647.0,11.77,14.72,10.58,0.16,-1.53,0.36,3.28,-69.53,-70.78
25713.0,-0.48,13.62,14.2,-0.47,-1.37,0.7,4.03,-68.79,-68.86
25779.0,-11.42,0.95,10.69,-0.42,-0.35,0.21,5.61,-67.2,-64.18
25846.0,5.04,12.13,-7.61,0.05,-0.37,-0.15,5.92,-66.89,-64.24
25913.0,3.09,-5.27,-21.33,-0.16,-0.54,-0.07,5.72,-67.09,-65.28
25978.0,-0.42,-8.47,-32.12,-0.19,-0.77,0.09,5.16,-67.65,-66.74
26046.0,-1.63,-2.12,-41.73,-0.1,-1.18,0.23,4.35,-68.47,-68.59
26110.0,-5.85,-7.67,-37.2,-0.53,-1.76,0.36,3.87,-68.94,-69.16
26178.0,10.05,8.98,1.03,-0.28,-1.2,0.45,4.68,-68.13,-68.13
26244.0,40.94,9.37,1.34,-0.18,-1.88,-0.63,7.08,-65.73,-66.22
26310.0,-0.27,12.66,7.6,-0.22,-0.94,0.72,8.08,-64.74,-63.82
26378.0,8.66,2.93,6.83,-0.18,-1.27,0.1,7.5,-65.32,-66.05
26444.0,-0.93,-3.74,6.61,-0.27,-1.04,0.33,7.28,-65.54,-66.4
26510.0,-3.24,2.71,5.77,-0.02,-0.91,0.32,6.74,-66.08,-67.28
26577.0,2.47,4.0,5.27,-0.03,-0.96,0.26,6.31,-66.51,-68.37
26642.0,1.45,0.96,5.52,0.01,-0.95,0.36,6.22,-66.6,-68.5
26710.0,1.75,1.01,6.39,-0.05,-0.95,0.24,5.69,-67.13,-69.68
26778.0,-0.09,1.4,7.2,-0.16,-1.03,0.28,5.31,-67.51,-70.29
26842.0,-1.53,3.23,7.89,-0.14,-1.11,0.32,4.86,-67.96,-70.89
26909.0,4.92,9.84,12.56,0.2,-1.53,0.31,4.57,-68.24,-71.67
26976.0,-3.77,8.16,16.54,-0.09,-1.59,0.74,4.57,-68.24,-70.95
27041.0,-10.33,-9.66,18.5,-0.44,-0.42,0.41,6.28,-66.54,-65.81
27109.0,-0.59,-5.8,0.14,-0.45,-0.35,0.33,8.64,-64.17,-60.31
27173.0,-0.6,-5.1,-13.62,-0.23,-0.34,0.04,9.26,-63.56,-59.26
27241.0,0.11,-9.14,-23.5,-0.18,-0.61,0.15,8.89,-63.92,-60.6
27308.0,-0.08,-11.49,-33.66,-0.3,-0.88,0.35,9.0,-63.82,-60.71
27373.0,3.84,-9.21,-39.71,-0.4,-1.55,0.39,8.78,-64.04,-61.9
27441.0,-4.34,5.27,-29.95,-0.27,-1.33,0.42,8.12,-64.69,-63.26
27507.0,-1.12,14.92,9.38,0.58,-1.34,-0.04,7.94,-64.88,-63.75
27573.0,6.98,-6.1,6.14,0.28,-1.51,-0.82,7.19,-64.13,-62.73
27640.0,0.92,-8.4,11.52,-0.23,-1.09,0.69,7.81,-63.52,-61.53
27705.0,-0.63,5.95,8.37,-0.28,-1.19,0.12,6.91,-64.41,-63.78
27773.0,-8.16,-2.08,5.88,-0.24,-0.99,0.29,6.09,-65.24,-65.04
27841.0,1.47,2.04,5.68,0.06,-0.96,0.32,5.76,-65.57,-65.97
27906.0,1.76,2.7,6.5,0.01,-0.98,0.24,5.12,-66.2,-67.56
27973.0,2.22,1.96,7.03,-0.09,-1.02,0.28,4.73,-66.6,-68.51
28039.0,2.8,4.43,6.08,-0.2,-1.03,0.25,4.46,-66.87,-69.19
28105.0,-2.1,2.55,6.61,-0.16,-1.08,0.27,3.86,-67.46,-70.13
28173.0,-2.08,4.63,8.33,-0.08,-1.09,0.3,3.25,-68.07,-71.07
28238.0,3.3,12.62,11.41,0.38,-1.7,0.16,2.88,-68.45,-71.92
28305.0,-11.23,-2.85,17.25,-0.11,-1.39,0.7,2.59,-68.73,-71.24
28372.0,-3.44,-8.57,13.09,-0.62,-0.59,0.34,4.39,-66.94,-66.46
28437.0,-0.44,-3.8,-2.13,-0.33,-0.49,0.29,5.67,-65.65,-63.47
28505.0,0.36,-4.54,-13.55,-0.23,-0.48,0.08,5.89,-65.43,-63.24
28572.0,1.15,-9.82,-22.67,-0.2,-0.69,0.19,5.76,-65.56,-63.89
28637.0,1.4,-11.6,-32.23,-0.22,-0.93,0.31,5.71,-65.61,-64.32
28704.0,3.52,-17.19,-35.84,-0.42,-1.47,0.39,5.71,-65.61,-64.77
28771.0,1.27,8.53,-28.31,-0.43,-1.23,0.57,6.2,-65.13,-63.84
28836.0,6.85,-11.92,1.31,-0.86,-1.45,0.33,7.14,-64.19,-62.38
28905.0,8.47,-24.0,11.87,-0.12,-1.52,0.19,6.45,-64.88,-64.97
28972.0,-10.74,5.62,12.78,-0.19,-0.57,0.21,5.86,-65.47,-65.35
29037.0,-3.2,-5.67,10.47,0.08,-0.87,0.31,5.39,-65.94,-66.19
29106.0,-5.56,-2.24,4.76,-0.16,-0.99,0.24,4.5,-66.83,-67.73
29171.0,1.53,1.47,5.66,0.02,-0.94,0.29,4.18,-67.15,-68.52
29238.0,1.43,3.11,4.23,0.01,-0.97,0.25,3.68,-67.64,-69.64
29305.0,3.15,4.13,3.82,-0.02,-0.99,0.24,3.26,-68.07,-70.71
29370.0,3.21,5.28,4.56,-0.07,-0.98,0.3,3.16,-68.16,-70.92
29437.0,-3.2,2.08,5.34,-0.16,-1.01,0.3,2.72,-68.6,-71.36
29505.0,-2.65,2.59,5.79,-0.15,-1.0,0.24,2.15,-69.17,-72.15
29570.0,-1.31,3.31,8.52,-0.0,-1.17,0.25,1.46,-69.86,-73.33
29637.0,1.59,7.47,12.87,0.28,-1.59,0.23,1.04,-70.29,-74.09
29706.0,-11.24,9.06,15.24,-0.45,-1.11,0.57,1.27,-70.05,-72.1
29769.0,-5.11,-1.88,9.82,-0.42,-0.48,0.16,2.59,-68.74,-68.35
29838.0,-4.34,-0.91,2.52,-0.23,-0.39,-0.13,3.19,-68.13,-66.62
29903.0,0.81,-10.42,-8.32,-0.36,-0.48,0.11,4.38,-66.94,-64.08
29970.0,-2.23,-12.12,-18.49,-0.18,-0.63,0.16,4.09,-67.24,-64.91
30038.0,-3.32,-16.63,-28.25,-0.24,-0.8,0.27,3.99,-67.34,-65.1
30102.0,2.15,-17.28,-36.5,-0.23,-1.39,0.43,3.88,-67.44,-65.78
30170.0,5.11,-9.05,-34.05,-0.19,-1.48,0.38,3.74,-67.58,-66.75
30237.0,6.89,6.48,-19.03,0.01,-1.05,0.04,2.78,-68.54,-69.72
30302.0,3.13,-3.01,9.26,-0.41,-0.91,0.09,3.2,-68.13,-68.89
30370.0,16.19,-3.62,-1.15,0.38,-1.54,-0.89,1.49,-66.42,-66.24
30438.0,1.37,2.46,11.85,0.1,-0.98,0.74,0.44,-65.37,-63.94
30502.0,-0.18,6.05,8.6,-0.1,-1.1,0.08,1.7,-66.63,-67.02
30570.0,-2.39,3.44,5.93,-0.15,-0.95,0.32,2.04,-66.97,-67.57
30639.0,2.9,1.38,3.85,-0.01,-0.98,0.35,2.08,-67.01,-67.87
30703.0,1.79,2.92,4.0,0.05,-0.92,0.3,2.31,-67.24,-68.47
30771.0,2.97,5.03,4.52,0.01,-0.98,0.29,2.57,-67.5,-69.19
30838.0,3.57,6.5,5.26,-0.01,-0.92,0.28,2.72,-67.65,-69.7
30903.0,1.14,1.58,5.93,-0.21,-0.97,0.33,2.7,-67.63,-69.52
30970.0,-0.23,2.98,5.85,-0.24,-1.06,0.27,2.94,-67.87,-69.86
31038.0,-0.41,3.35,7.12,-0.05,-1.1,0.32,3.38,-68.31,-70.63
31102.0,1.17,7.5,10.21,0.13,-1.45,0.17,4.24,-69.17,-72.49
31171.0,2.1,6.96,13.51,-0.01,-1.49,0.53,4.21,-69.13,-72.24
31236.0,-3.7,-1.76,15.68,-0.49,-0.74,0.52,5.57,-67.77,-68.39
31303.0,-3.02,-1.82,0.83,-0.38,-0.35,0.32,7.69,-65.65,-63.13
31371.0,1.41,-5.16,-11.56,-0.27,-0.48,0.1,8.26,-65.08,-62.2
31435.0,1.21,-6.46,-21.33,-0.19,-0.62,0.12,8.02,-65.32,-63.21
31503.0,-1.02,-9.39,-31.71,-0.29,-0.88,0.3,8.01,-65.33,-63.37
31570.0,3.35,-11.65,-36.95,-0.19,-1.44,0.19,7.23,-66.11,-65.71
31635.0,-4.21,-1.11,-33.68,-0.66,-1.33,0.31,7.32,-66.02,-65.19
31703.0,8.37,7.32,-0.34,-0.08,-1.04,-0.16,6.83,-66.51,-67.15
31770.0,2.83,-4.17,8.52,0.82,-1.09,-0.12,5.69,-65.36,-64.66
31835.0,6.67,-8.98,9.55,-0.35,-1.3,0.55,6.24,-64.81,-64.03
31903.0,8.02,-6.0,9.56,-0.11,-1.11,0.15,5.64,-65.41,-66.24
31968.0,-1.9,-5.97,9.41,0.16,-0.89,0.39,5.7,-65.47,-66.12
32035.0,0.37,0.02,7.69,-0.02,-1.0,0.17,6.72,-66.49,-68.46
32103.0,2.68,1.51,6.74,-0.14,-0.96,0.24,7.05,-66.82,-69.25
32167.0,3.19,2.26,5.05,-0.1,-0.97,0.25,7.37,-67.13,-70.01
32235.0,3.24,4.57,4.5,-0.14,-0.98,0.24,7.66,-67.42,-70.66
32304.0,1.09,3.7,4.56,-0.17,-0.99,0.27,7.91,-67.68,-71.01
32367.0,-1.05,3.0,6.34,-0.2,-1.01,0.34,8.04,-67.81,-70.85
32436.0,1.18,3.69,8.87,-0.08,-1.1,0.36,8.22,-67.99,-71.04
32503.0,-0.13,8.92,10.41,0.02,-1.4,0.28,8.98,-68.75,-72.48
32568.0,-3.41,5.19,13.18,-0.21,-1.34,0.51,8.84,-68.88,-72.09
32635.0,-1.75,-1.42,12.16,-0.49,-0.6,0.42,10.55,-67.17,-67.6
32703.0,3.49,2.09,-2.07,-0.23,-0.56,0.23,11.27,-66.45,-66.2
32768.0,2.44,-2.98,-12.82,-0.24,-0.52,-0.02,11.55,-66.18,-65.81
32835.0,3.21,-4.92,-23.24,-0.23,-0.76,0.13,11.43,-66.3,-66.43
32900.0,1.79,-3.6,-31.69,-0.2,-0.89,0.2,11.1,-66.62,-67.34
32967.0,4.86,-8.15,-36.73,-0.17,-1.44,0.18,10.45,-67.27,-69.22
33035.0,-3.76,-11.05,-32.2,-0.27,-1.37,0.26,9.71,-68.01,-70.4
33099.0,8.01,20.66,-1.99,-0.25,-1.23,0.32,9.94,-67.78,-70.32
33168.0,1.36,-3.21,8.66,0.89,-0.83,0.04,8.14,-65.98,-65.95
33235.0,8.08,-9.21,9.03,-0.18,-1.33,0.24,8.41,-66.25,-67.34
33300.0,4.56,-6.83,9.53,-0.21,-1.05,0.36,8.3,-66.14,-67.38
33368.0,0.07,-5.04,9.15,0.09,-0.94,0.25,8.86,-66.7,-68.58
33435.0,-0.31,6.18,5.01,0.23,-0.96,0.18,9.34,-67.18,-69.48
33500.0,4.2,3.39,4.98,-0.0,-0.96,0.22,9.79,-67.63,-70.65
33568.0,6.41,5.24,4.97,0.0,-0.97,0.23,10.01,-67.86,-71.42
33636.0,4.37,4.56,5.03,-0.07,-1.0,0.25,10.27,-68.11,-72.04
33700.0,1.15,2.18,4.69,-0.11,-0.98,0.32,10.38,-68.22,-71.97
33768.0,-2.16,1.5,4.62,-0.23,-0.96,0.3,10.52,-68.36,-71.72
33832.0,0.23,3.21,5.1,-0.15,-0.98,0.35,10.54,-68.39,-71.44
33900.0,0.95,5.94,6.58,-0.17,-1.03,0.26,10.82,-68.66,-71.85
33968.0,5.11,9.98,9.17,0.12,-1.36,0.34,10.95,-68.79,-72.29
34032.0,-0.38,11.58,11.53,-0.22,-1.28,0.43,11.02,-68.86,-72.05
34100.0,4.79,5.43,10.76,-0.39,-0.63,0.23,12.3,-67.58,-69.14
34168.0,-7.24,4.17,0.5,-0.47,-0.28,0.32,14.73,-65.15,-62.64
34232.0,0.3,-8.66,-11.0,-0.22,-0.5,0.06,14.69,-65.19,-63.06
34300.0,0.33,-5.72,-21.82,-0.2,-0.71,0.21,14.54,-65.34,-63.7
34368.0,-0.08,-6.04,-30.74,-0.46,-1.14,0.26,14.56,-65.33,-63.85
34433.0,1.43,-6.83,-28.7,-0.16,-1.23,0.16,13.65,-66.24,-66.29
34500.0,0.11,-3.57,-22.36,-0.21,-1.17,0.36,13.35,-66.53,-66.99
34565.0,5.74,-1.14,-15.94,-0.22,-1.1,0.47,13.83,-66.06,-66.35
34632.0,2.79,-0.06,-2.19,0.04,-0.96,-0.01,12.51,-67.37,-69.64
34700.0,4.7,-4.16,8.37,1.44,-0.96,0.04,9.86,-64.71,-63.61
34764.0,1.89,5.73,8.15,0.26,-0.95,0.25,10.06,-64.91,-64.38
34833.0,-0.19,9.23,6.39,-0.4,-1.08,-0.02,10.4,-65.26,-65.24
34900.0,-8.51,-5.5,7.35,-0.32,-0.89,0.57,10.67,-64.99,-63.85
34965.0,-1.47,3.17,2.04,0.01,-0.87,0.24,9.91,-65.75,-65.63
35034.0,1.69,2.91,0.31,0.14,-0.92,0.28,9.63,-66.03,-66.46
35101.0,1.5,4.64,0.67,0.05,-0.89,0.08,8.48,-67.19,-69.27
35166.0,0.61,0.29,0.04,0.12,-0.95,0.31,8.26,-67.41,-69.61
35233.0,0.79,0.93,0.32,0.13,-0.97,0.29,8.01,-67.66,-70.02
35301.0,-0.39,1.55,0.02,-0.07,-0.95,0.23,7.4,-68.26,-71.15
35365.0,-0.48,0.8,-0.19,0.04,-0.94,0.36,7.31,-68.36,-71.02
35434.0,0.01,1.26,-0.89,0.04,-0.94,0.23,6.76,-68.91,-72.03
35502.0,0.13,-0.34,-1.22,0.02,-0.96,0.26,6.34,-69.32,-72.69
35566.0,0.21,0.28,-1.86,0.02,-0.96,0.25,5.93,-69.73,-73.29
35634.0,0.58,-0.02,-1.92,0.08,-0.97,0.24,5.58,-70.08,-73.79
35698.0,0.28,-0.16,-1.49,0.07,-0.97,0.24,5.23,-70.44,-74.24
35766.0,0.21,-0.1,-1.29,0.05,-0.97,0.25,4.9,-70.77,-74.63
35833.0,0.25,0.64,-1.11,0.12,-0.97,0.23,4.63,-71.04,-74.88
35898.0,0.48,1.02,-0.95,0.09,-0.96,0.21,4.26,-71.41,-75.38
35965.0,0.55,0.58,-0.93,0.05,-0.98,0.22,3.88,-71.79,-75.89
36034.0,0.49,0.81,-1.31,0.07,-0.97,0.22,3.57,-72.09,-76.22
36099.0,0.57,1.46,-1.5,0.09,-0.97,0.21,3.3,-72.36,-76.47
36166.0,0.56,1.36,-1.18,0.1,-0.97,0.2,3.01,-72.65,-76.77
36234.0,0.4,0.42,-0.5,0.12,-0.97,0.21,2.79,-72.87,-76.89
36298.0,0.86,-0.14,-0.11,0.1,-0.98,0.2,2.54,-73.13,-77.14
36366.0,0.73,0.17,-0.34,0.05,-0.98,0.2,2.22,-73.44,-77.52
36433.0,0.68,0.95,-0.44,0.07,-0.97,0.2,1.96,-73.7,-77.77
36498.0,1.09,0.09,-0.47,0.08,-0.98,0.19,1.73,-73.94,-77.99
36567.0,1.03,0.21,-0.6,0.05,-0.98,0.19,1.45,-74.21,-78.31
36631.0,1.02,0.12,-0.76,0.01,-0.98,0.21,1.27,-74.4,-78.41
36699.0,0.82,0.11,-1.42,0.03,-0.98,0.21,1.06,-74.6,-78.53
36766.0,0.87,0.31,-1.27,0.08,-0.96,0.21,0.97,-74.69,-78.42
36831.0,0.92,0.75,-0.69,0.06,-0.97,0.2,0.83,-74.84,-78.46
36898.0,1.01,0.37,-0.77,0.02,-0.98,0.19,0.61,-75.05,-78.68
36967.0,0.92,0.46,-0.91,0.05,-0.98,0.21,0.5,-75.16,-78.66
37031.0,0.87,0.72,-0.83,0.06,-0.97,0.21,0.43,-75.24,-78.56
37099.0,0.86,0.44,-0.76,0.05,-0.97,0.2,0.3,-75.36,-78.58
37167.0,0.83,0.21,-0.77,0.06,-0.98,0.21,0.22,-75.45,-78.54
37231.0,0.75,0.13,-0.73,0.04,-0.98,0.21,0.11,-75.56,-78.55
37299.0,0.73,0.49,-0.8,0.04,-0.97,0.21,0.0,-75.66,-78.56
37367.0,0.75,0.6,-0.91,0.04,-0.97,0.21,-0.1,-75.76,-78.58
37432.0,0.76,0.69,-0.95,0.04,-0.97,0.21,-0.19,-75.86,-78.58
37499.0,0.69,0.38,-0.97,0.05,-0.98,0.2,-0.3,-75.96,-78.62
37567.0,0.7,0.53,-0.95,0.04,-0.97,0.2,-0.42,-76.08,-78.71
37632.0,0.72,0.54,-0.89,0.04,-0.98,0.19,-0.56,-76.23,-78.85
37700.0,0.82,0.7,-1.02,0.04,-0.98,0.2,-0.66,-76.32,-78.88
37768.0,0.89,0.67,-0.98,0.04,-0.98,0.19,-0.77,-76.44,-78.98
37832.0,0.89,0.55,-1.02,0.04,-0.98,0.2,-0.84,-76.5,-78.96
37900.0,0.92,0.26,-0.85,0.05,-0.98,0.2,-0.91,-76.57,-78.96
37966.0,0.81,0.2,-0.83,0.04,-0.98,0.2,-0.95,-76.62,-78.91
38033.0,0.81,0.26,-0.85,0.05,-0.98,0.2,-1.0,-76.66,-78.86
38100.0,0.73,0.15,-0.8,0.04,-0.98,0.2,-1.07,-76.73,-78.87
38167.0,0.72,0.34,-0.91,0.05,-0.96,0.2,-1.12,-76.79,-78.85
38233.0,0.82,0.56,-1.08,0.03,-0.98,0.18,-1.26,-76.92,-79.05
38301.0,0.89,0.78,-1.11,0.07,-0.98,0.18,-1.32,-76.99,-79.06
38366.0,1.18,0.06,-0.69,0.03,-0.98,0.2,-1.35,-77.01,-79.03
38433.0,1.01,0.29,-0.83,0.04,-0.97,0.2,-1.38,-77.05,-79.01
38501.0,1.02,0.4,-0.83,0.05,-0.97,0.2,-1.4,-77.06,-78.94
38565.0,1.21,0.24,-0.63,0.05,-0.98,0.21,-1.37,-77.04,-78.8
38634.0,1.11,0.11,-0.82,0.04,-0.98,0.2,-1.37,-77.04,-78.74
38702.0,1.11,-0.19,-0.8,0.03,-0.97,0.21,-1.35,-77.02,-78.63
38766.0,0.94,0.24,-0.9,0.03,-0.99,0.21,-1.36,-77.02,-78.57
38834.0,0.85,0.36,-0.95,0.03,-0.97,0.21,-1.36,-77.02,-78.5
38902.0,0.76,0.66,-1.04,0.04,-0.97,0.21,-1.35,-77.02,-78.42
38967.0,0.69,0.48,-0.92,0.04,-0.97,0.21,-1.34,-77.0,-78.31
39034.0,0.59,0.43,-0.81,0.04,-0.98,0.2,-1.37,-77.04,-78.32
39102.0,0.72,0.44,-0.72,0.04,-0.98,0.21,-1.37,-77.03,-78.25
39166.0,0.58,0.86,-0.8,0.02,-0.96,0.19,-1.46,-77.12,-78.4
39235.0,0.78,0.53,-1.02,0.03,-0.98,0.19,-1.53,-77.2,-78.52
39303.0,0.86,0.82,-1.04,0.03,-0.97,0.2,-1.56,-77.22,-78.54
39367.0,0.89,0.45,-1.02,0.04,-0.97,0.2,-1.55,-77.22,-78.48
39435.0,0.87,0.46,-0.97,0.03,-0.98,0.19,-1.61,-77.27,-78.56
39503.0,0.87,0.37,-0.96,0.03,-0.97,0.19,-1.64,-77.3,-78.59
39568.0,0.92,0.31,-0.95,0.04,-0.98,0.2,-1.66,-77.32,-78.6
39635.0,0.89,0.31,-0.98,0.03,-0.98,0.21,-1.65,-77.31,-78.53
39703.0,0.83,0.34,-1.04,0.03,-0.98,0.2,-1.68,-77.35,-78.56
39768.0,0.85,0.36,-1.1,0.03,-0.98,0.2,-1.71,-77.37,-78.58
39836.0,0.82,0.35,-1.08,0.04,-0.97,0.2,-1.72,-77.39,-78.58
39904.0,0.89,0.18,-1.02,0.04,-0.98,0.2,-1.74,-77.4,-78.58
39968.0,0.86,0.21,-0.99,0.03,-0.98,0.2,-1.75,-77.42,-78.58
40037.0,0.87,0.29,-1.02,0.04,-0.98,0.2,-1.77,-77.43,-78.57
40104.0,0.91,0.4,-0.98,0.04,-0.98,0.19,-1.81,-77.48,-78.65
40169.0,0.86,0.27,-0.89,0.05,-0.98,0.2,-1.82,-77.48,-78.63
40237.0,0.95,0.33,-0.87,0.03,-0.98,0.19,-1.85,-77.52,-78.68
40305.0,0.95,0.36,-1.05,0.04,-0.97,0.2,-1.84,-77.51,-78.63
40370.0,0.95,0.48,-1.13,0.04,-0.98,0.2,-1.83,-77.49,-78.57
40437.0,0.93,0.36,-1.04,0.05,-0.98,0.19,-1.84,-77.51,-78.58
40504.0,0.92,0.4,-1.0,0.04,-0.98,0.2,-1.85,-77.52,-78.58
40569.0,0.89,0.33,-0.93,0.04,-0.98,0.2,-1.84,-77.51,-78.54
40638.0,0.92,0.43,-0.93,0.04,-0.97,0.2,-1.82,-77.49,-78.47
40704.0,0.9,0.42,-0.91,0.06,-0.98,0.19,-1.85,-77.51,-78.52
40770.0,0.82,0.54,-0.86,0.04,-0.98,0.2,-1.86,-77.52,-78.52
40838.0,0.86,0.62,-0.9,0.04,-0.97,0.19,-1.88,-77.54,-78.55
40904.0,0.88,0.48,-0.86,0.04,-0.97,0.21,-1.84,-77.51,-78.44
40971.0,0.88,0.4,-0.9,0.04,-0.97,0.2,-1.82,-77.49,-78.38
41038.0,0.86,0.31,-0.92,0.04,-0.98,0.19,-1.85,-77.51,-78.43
41105.0,0.83,0.31,-0.98,0.04,-0.98,0.2,-1.85,-77.52,-78.42
41170.0,0.84,0.29,-1.01,0.04,-0.97,0.19,-1.87,-77.53,-78.45
41238.0,0.82,0.37,-1.01,0.04,-0.98,0.2,-1.87,-77.54,-78.44
41305.0,0.83,0.37,-1.02,0.05,-0.97,0.2,-1.86,-77.53,-78.41
41371.0,0.84,0.31,-0.98,0.04,-0.97,0.2,-1.87,-77.53,-78.42
41439.0,0.89,0.29,-0.95,0.04,-0.98,0.2,-1.84,-77.51,-78.34
41503.0,0.86,0.3,-0.94,0.04,-0.98,0.2,-1.85,-77.52,-78.36
41571.0,0.85,0.29,-0.93,0.04,-0.98,0.2,-1.86,-77.52,-78.36
41638.0,0.86,0.3,-0.93,0.04,-0.98,0.19,-1.87,-77.54,-78.4
41703.0,0.87,0.34,-0.92,0.04,-0.98,0.19,-1.9,-77.57,-78.46
41772.0,0.83,0.44,-0.93,0.04,-0.98,0.2,-1.9,-77.56,-78.44
41839.0,0.86,0.44,-0.92,0.04,-0.98,0.19,-1.92,-77.59,-78.49
41904.0,0.86,0.4,-0.94,0.04,-0.98,0.2,-1.91,-77.58,-78.45
41971.0,0.89,0.39,-0.93,0.04,-0.98,0.19,-1.92,-77.59,-78.47
42038.0,0.86,0.33,-0.92,0.05,-0.98,0.19,-1.94,-77.61,-78.5
42103.0,0.89,0.39,-0.96,0.05,-0.98,0.2,-1.94,-77.6,-78.48
42172.0,0.94,0.39,-0.99,0.04,-0.98,0.2,-1.93,-77.59,-78.45
42237.0,0.9,0.41,-0.98,0.04,-0.98,0.19,-1.96,-77.62,-78.52
42304.0,0.95,0.35,-0.87,0.04,-0.98,0.2,-1.93,-77.59,-78.45
42372.0,0.89,0.27,-0.84,0.04,-0.98,0.2,-1.91,-77.57,-78.39
42438.0,0.92,0.37,-0.92,0.04,-0.98,0.2,-1.9,-77.57,-78.39
42504.0,0.87,0.42,-0.95,0.03,-0.98,0.2,-1.9,-77.56,-78.37
42572.0,0.86,0.41,-0.95,0.04,-0.98,0.2,-1.87,-77.53,-78.3
42638.0,0.85,0.37,-0.86,0.04,-0.97,0.2,-1.87,-77.53,-78.29
42704.0,0.9,0.35,-0.95,0.03,-0.98,0.2,-1.88,-77.55,-78.33
42772.0,0.84,0.39,-0.91,0.04,-0.98,0.2,-1.89,-77.55,-78.34
42836.0,0.89,0.43,-0.9,0.04,-0.98,0.2,-1.87,-77.54,-78.32
42904.0,0.87,0.34,-0.94,0.04,-0.98,0.2,-1.88,-77.54,-78.32
42971.0,0.87,0.37,-0.91,0.03,-0.98,0.2,-1.89,-77.55,-78.35
43037.0,0.83,0.37,-0.9,0.04,-0.98,0.2,-1.9,-77.57,-78.37
43105.0,0.82,0.37,-0.87,0.04,-0.98,0.2,-1.91,-77.58,-78.39
43170.0,0.86,0.31,-0.92,0.03,-0.98,0.19,-1.94,-77.61,-78.45
43237.0,0.85,0.35,-0.93,0.04,-0.98,0.19,-1.96,-77.62,-78.49
43304.0,0.85,0.35,-0.96,0.04,-0.98,0.2,-1.96,-77.62,-78.48
43371.0,0.85,0.37,-0.95,0.04,-0.98,0.19,-1.99,-77.65,-78.53
43438.0,0.86,0.39,-0.95,0.04,-0.97,0.19,-1.99,-77.66,-78.53
43505.0,0.89,0.46,-0.97,0.04,-0.98,0.2,-1.99,-77.65,-78.51
43571.0,0.91,0.35,-0.95,0.04,-0.98,0.2,-1.99,-77.65,-78.51
43637.0,0.91,0.4,-0.91,0.04,-0.98,0.2,-1.98,-77.65,-78.5
43705.0,0.89,0.43,-0.89,0.04,-0.98,0.19,-1.99,-77.66,-78.51
43771.0,0.92,0.43,-0.93,0.03,-0.98,0.2,-1.99,-77.66,-78.5
43837.0,0.82,0.3,-0.92,0.03,-0.97,0.19,-2.01,-77.68,-78.54
43906.0,0.91,0.35,-0.97,0.04,-0.98,0.19,-2.01,-77.68,-78.54
