timestamp millis,GyrX,GyrY,GyrZ,AccX,AccY,AccZ,Complementary_Filter_Angle_Calculated,Complementary_Filter_Angle,Kalman_Filter_Angle
29288.0,1.02,-0.07,-1.08,0.01,-0.99,0.06,-0.85,-85.25,-86.24
29353.0,1.11,0.07,-0.88,0.01,-1.0,0.06,-0.86,-85.26,-86.25
29421.0,0.96,-0.27,-0.75,-0.01,-0.99,0.08,-0.82,-85.22,-86.14
29488.0,1.37,-0.11,-1.06,-0.01,-0.99,0.09,-0.71,-85.11,-85.92
29553.0,1.49,-0.66,-0.82,-0.01,-0.99,0.11,-0.53,-84.93,-85.55
29621.0,1.24,-1.29,-0.4,-0.02,-0.98,0.12,-0.31,-84.71,-85.07
29685.0,1.18,-1.33,-0.4,0.05,-0.99,0.15,-0.62,-84.39,-84.4
29753.0,1.29,-3.59,-0.43,-0.02,-1.0,0.19,-0.2,-83.97,-83.53
29819.0,1.05,-0.85,-0.98,-0.07,-0.99,0.13,0.03,-83.74,-83.15
29886.0,0.84,0.69,-0.87,-0.07,-0.98,0.15,0.3,-83.47,-82.66
29954.0,0.7,0.35,-0.75,-0.03,-1.0,0.13,0.43,-83.34,-82.52
30019.0,0.31,-0.27,-0.38,-0.01,-1.0,0.16,0.6,-83.17,-82.23
30086.0,0.04,-0.08,-0.5,-0.02,-0.98,0.15,0.74,-83.03,-82.02
30153.0,0.28,1.28,-1.28,-0.03,-0.98,0.18,1.0,-82.77,-81.55
30220.0,-0.02,1.99,-1.25,-0.04,-0.99,0.14,1.06,-82.71,-81.55
30285.0,0.03,1.95,-1.41,-0.04,-0.98,0.09,0.94,-82.83,-81.96
30353.0,0.08,1.99,-1.47,-0.05,-0.99,0.1,0.89,-82.88,-82.19
30417.0,0.27,2.71,-1.22,0.01,-0.99,0.09,0.76,-83.01,-82.59
30485.0,0.31,0.16,-0.98,-0.05,-0.99,0.1,0.73,-83.04,-82.73
30554.0,0.37,0.84,-0.77,-0.02,-0.99,0.07,0.54,-83.23,-83.24
30618.0,0.35,-0.3,-0.92,-0.04,-0.99,0.09,0.47,-83.3,-83.45
30686.0,0.46,0.11,-1.18,-0.05,-0.99,0.08,0.4,-83.37,-83.61
30751.0,0.47,0.2,-1.21,-0.04,-0.99,0.08,0.33,-83.44,-83.79
30818.0,0.54,0.48,-1.17,-0.03,-0.99,0.08,0.25,-83.52,-83.99
30885.0,0.47,0.64,-1.24,-0.04,-0.99,0.08,0.18,-83.59,-84.14
30952.0,0.44,0.53,-1.31,-0.03,-0.99,0.08,0.11,-83.66,-84.29
31017.0,0.56,0.6,-1.32,-0.03,-0.99,0.08,0.05,-83.72,-84.4
31085.0,0.62,0.71,-1.34,-0.05,-0.99,0.08,0.01,-83.76,-84.48
31150.0,0.6,0.8,-1.19,-0.02,-0.99,0.07,-0.08,-83.85,-84.66
31217.0,0.6,0.57,-1.25,-0.03,-0.99,0.07,-0.16,-83.93,-84.82
31284.0,0.68,0.63,-1.3,-0.0,-0.99,0.07,-0.24,-84.01,-84.97
31349.0,0.76,0.47,-1.37,-0.02,-0.99,0.09,-0.24,-84.01,-84.94
31417.0,0.73,0.46,-1.27,-0.02,-0.99,0.08,-0.28,-84.05,-84.98
31483.0,0.66,0.38,-1.15,-0.02,-0.99,0.08,-0.33,-84.1,-85.08
31549.0,0.64,0.36,-1.11,-0.01,-0.99,0.08,-0.36,-84.13,-85.1
31618.0,0.66,0.18,-1.08,-0.01,-1.0,0.08,-0.4,-84.17,-85.13
31683.0,0.69,0.11,-1.11,-0.03,-0.99,0.09,-0.4,-84.17,-85.09
31750.0,0.66,0.3,-1.18,-0.03,-0.99,0.09,-0.4,-84.17,-85.05
31817.0,0.63,0.42,-1.13,-0.02,-0.99,0.09,-0.39,-84.16,-85.0
31882.0,0.62,0.45,-1.15,-0.02,-0.99,0.08,-0.42,-84.19,-85.03
31949.0,0.61,0.5,-1.15,-0.02,-0.99,0.09,-0.43,-84.2,-85.02
32017.0,0.6,0.5,-1.15,-0.02,-0.99,0.09,-0.44,-84.21,-85.02
32081.0,0.63,0.7,-1.11,-0.02,-0.99,0.09,-0.45,-84.22,-85.02
32150.0,0.69,0.76,-1.14,-0.02,-0.99,0.08,-0.47,-84.24,-85.04
32216.0,0.66,0.69,-1.12,-0.01,-0.99,0.09,-0.48,-84.25,-85.03
32282.0,0.66,0.44,-1.11,-0.02,-0.99,0.09,-0.48,-84.25,-85.02
32350.0,0.61,0.47,-1.05,-0.02,-0.99,0.08,-0.52,-84.29,-85.08
32416.0,0.7,0.59,-1.1,-0.0,-0.99,0.08,-0.56,-84.33,-85.16
32482.0,0.67,0.43,-1.14,-0.02,-0.99,0.08,-0.57,-84.34,-85.16
32549.0,0.64,0.26,-1.05,-0.01,-0.99,0.09,-0.58,-84.35,-85.15
32616.0,0.57,0.2,-1.06,-0.02,-0.99,0.08,-0.59,-84.36,-85.14
32681.0,0.63,0.24,-1.15,-0.01,-0.99,0.08,-0.61,-84.38,-85.17
32750.0,0.68,0.21,-1.15,-0.03,-0.99,0.08,-0.63,-84.4,-85.2
32815.0,0.63,0.49,-1.1,-0.02,-1.0,0.08,-0.65,-84.42,-85.23
32882.0,0.61,0.49,-1.11,-0.01,-0.99,0.09,-0.64,-84.41,-85.17
32950.0,0.65,0.32,-1.11,-0.01,-0.99,0.07,-0.69,-84.46,-85.26
33014.0,0.63,0.37,-1.08,-0.02,-0.99,0.08,-0.69,-84.46,-85.24
33082.0,0.64,0.32,-1.07,-0.02,-0.99,0.08,-0.71,-84.48,-85.26
33148.0,0.66,0.43,-1.11,-0.02,-0.99,0.08,-0.72,-84.49,-85.26
33214.0,0.64,0.42,-1.07,-0.02,-0.99,0.09,-0.71,-84.48,-85.21
33282.0,0.64,0.46,-1.02,-0.02,-1.0,0.08,-0.71,-84.48,-85.2
33348.0,0.61,0.53,-1.04,-0.02,-0.99,0.09,-0.7,-84.47,-85.15
33414.0,0.65,0.56,-1.07,-0.01,-0.99,0.08,-0.71,-84.48,-85.18
33482.0,0.62,0.5,-1.13,-0.02,-0.99,0.08,-0.73,-84.5,-85.22
33547.0,0.64,0.47,-1.09,-0.02,-0.99,0.08,-0.73,-84.5,-85.18
33614.0,0.63,0.6,-1.15,-0.02,-0.99,0.09,-0.71,-84.48,-85.14
33682.0,0.6,0.39,-1.1,-0.01,-0.99,0.07,-0.76,-84.53,-85.24
33746.0,0.67,0.35,-1.11,-0.02,-0.99,0.08,-0.76,-84.53,-85.22
33814.0,0.64,0.31,-1.15,-0.02,-0.99,0.09,-0.73,-84.5,-85.14
33882.0,0.66,0.46,-1.18,-0.02,-0.99,0.08,-0.74,-84.51,-85.16
33946.0,0.66,0.5,-1.25,-0.01,-0.99,0.09,-0.73,-84.5,-85.13
34015.0,0.63,0.24,-1.07,-0.02,-0.99,0.08,-0.75,-84.52,-85.17
34080.0,0.68,0.35,-1.08,-0.01,-0.99,0.08,-0.77,-84.54,-85.2
34147.0,0.66,0.6,-1.15,-0.03,-0.99,0.08,-0.76,-84.53,-85.19
34214.0,0.6,0.73,-1.08,-0.0,-0.99,0.08,-0.78,-84.55,-85.21
34279.0,0.64,0.38,-1.07,0.0,-0.99,0.09,-0.77,-84.54,-85.17
34347.0,0.63,0.08,-1.02,-0.01,-1.0,0.09,-0.76,-84.53,-85.15
34414.0,0.54,-0.18,-0.99,-0.02,-0.99,0.09,-0.74,-84.51,-85.09
34479.0,0.63,0.02,-1.11,-0.03,-0.99,0.08,-0.73,-84.51,-85.08
34546.0,0.63,0.39,-1.15,-0.03,-0.99,0.08,-0.74,-84.51,-85.09
34614.0,0.58,0.69,-1.15,-0.02,-0.99,0.09,-0.73,-84.5,-85.07
34678.0,0.61,0.6,-1.14,-0.01,-1.0,0.09,-0.72,-84.49,-85.05
34747.0,0.62,0.44,-1.18,-0.03,-0.99,0.08,-0.73,-84.5,-85.07
34814.0,0.63,0.71,-1.18,-0.02,-1.0,0.07,-0.78,-84.55,-85.18
34879.0,0.66,0.59,-1.19,-0.01,-0.99,0.09,-0.76,-84.53,-85.13
34947.0,0.65,0.48,-1.14,-0.01,-0.99,0.08,-0.77,-84.54,-85.14
35013.0,0.56,0.24,-1.04,-0.02,-1.0,0.08,-0.77,-84.54,-85.14
35079.0,0.59,0.39,-1.01,-0.01,-0.99,0.08,-0.77,-84.54,-85.14
35146.0,0.66,0.7,-1.28,-0.03,-0.99,0.08,-0.77,-84.54,-85.12
35211.0,0.69,1.15,-1.38,-0.03,-0.99,0.08,-0.76,-84.53,-85.1
35278.0,0.56,0.89,-1.23,0.01,-0.99,0.09,-0.74,-84.51,-85.06
35347.0,0.63,0.35,-1.15,0.01,-0.99,0.08,-0.77,-84.54,-85.13
35410.0,0.65,0.18,-1.16,-0.02,-0.99,0.07,-0.81,-84.58,-85.22
35479.0,0.63,0.57,-1.15,-0.03,-0.99,0.08,-0.82,-84.59,-85.23
35547.0,0.67,1.0,-1.23,-0.0,-0.99,0.08,-0.85,-84.62,-85.3
35611.0,0.63,0.8,-1.12,0.02,-0.99,0.08,-0.84,-84.61,-85.27
35679.0,0.68,0.13,-1.0,0.02,-0.99,0.08,-0.85,-84.62,-85.28
35745.0,0.63,-0.23,-0.96,-0.0,-0.99,0.09,-0.83,-84.6,-85.22
35811.0,0.65,0.21,-0.96,-0.03,-0.99,0.08,-0.83,-84.6,-85.22
35878.0,0.67,0.68,-1.07,-0.02,-0.99,0.08,-0.81,-84.58,-85.18
35943.0,0.68,0.81,-1.09,-0.01,-1.0,0.09,-0.8,-84.57,-85.15
36011.0,0.63,0.76,-1.04,-0.02,-0.99,0.08,-0.8,-84.57,-85.15
36079.0,0.63,0.63,-0.96,0.01,-1.0,0.08,-0.82,-84.59,-85.2
36143.0,0.63,0.24,-0.95,0.0,-0.99,0.09,-0.8,-84.57,-85.15
36211.0,0.64,0.09,-0.95,-0.02,-0.99,0.08,-0.79,-84.56,-85.12
36279.0,0.58,0.27,-0.93,-0.05,-0.99,0.08,-0.75,-84.52,-85.03
36343.0,0.52,0.77,-0.93,-0.03,-0.99,0.08,-0.75,-84.52,-85.01
36411.0,0.53,0.54,-0.85,-0.02,-1.0,0.07,-0.79,-84.56,-85.11
36476.0,0.57,0.5,-0.95,-0.01,-0.99,0.07,-0.84,-84.61,-85.21
36543.0,0.65,0.22,-1.13,-0.03,-0.99,0.08,-0.84,-84.61,-85.21
36611.0,0.61,0.39,-1.05,-0.04,-0.99,0.08,-0.82,-84.59,-85.16
36675.0,0.65,0.56,-1.08,-0.01,-0.99,0.08,-0.85,-84.62,-85.23
36743.0,0.66,0.41,-1.12,-0.03,-0.99,0.08,-0.85,-84.62,-85.23
36810.0,0.66,0.44,-1.11,-0.02,-1.0,0.08,-0.84,-84.61,-85.2
36875.0,0.63,0.37,-1.11,-0.02,-0.99,0.08,-0.83,-84.6,-85.17
36943.0,0.64,0.18,-1.06,-0.02,-0.99,0.08,-0.83,-84.6,-85.18
37011.0,0.63,0.32,-1.12,-0.03,-0.99,0.08,-0.82,-84.59,-85.15
37075.0,0.63,0.24,-1.15,-0.03,-1.0,0.07,-0.84,-84.61,-85.19
37143.0,0.6,0.72,-1.17,-0.03,-0.99,0.08,-0.85,-84.62,-85.21
37211.0,0.72,0.55,-1.27,-0.02,-0.99,0.08,-0.84,-84.61,-85.21
37275.0,0.76,0.97,-1.35,-0.03,-1.0,0.07,-0.86,-84.63,-85.27
37343.0,0.68,0.73,-1.25,-0.0,-0.99,0.09,-0.82,-84.59,-85.15
37407.0,0.65,0.52,-1.15,-0.01,-0.99,0.08,-0.82,-84.59,-85.16
37476.0,0.62,0.08,-1.06,0.02,-1.0,0.07,-0.86,-84.63,-85.26
37543.0,0.72,0.08,-1.1,-0.02,-0.99,0.08,-0.87,-84.64,-85.26
37608.0,0.63,-0.02,-1.05,-0.03,-0.99,0.08,-0.85,-84.62,-85.23
37676.0,0.63,0.53,-1.06,-0.04,-1.0,0.09,-0.81,-84.58,-85.13
37743.0,0.63,0.86,-1.11,-0.01,-0.99,0.08,-0.82,-84.59,-85.15
37808.0,0.66,0.58,-1.08,0.0,-0.99,0.08,-0.82,-84.59,-85.16
37875.0,0.66,0.07,-1.02,-0.01,-0.99,0.07,-0.88,-84.65,-85.29
37944.0,0.63,0.04,-1.04,-0.04,-0.99,0.09,-0.82,-84.59,-85.15
38008.0,0.65,0.51,-1.06,-0.03,-0.99,0.08,-0.81,-84.58,-85.13
38076.0,0.66,0.47,-1.06,-0.01,-0.99,0.08,-0.84,-84.61,-85.19
38144.0,0.67,0.35,-1.03,-0.01,-0.99,0.08,-0.84,-84.61,-85.2
38208.0,0.67,0.1,-1.03,-0.02,-0.99,0.08,-0.83,-84.6,-85.17
38276.0,0.69,0.34,-1.05,-0.04,-0.99,0.08,-0.79,-84.56,-85.1
38340.0,0.68,0.43,-1.1,-0.03,-0.99,0.08,-0.79,-84.56,-85.1
38408.0,0.61,0.44,-1.09,-0.02,-0.99,0.09,-0.79,-84.56,-85.08
38475.0,0.64,0.32,-1.09,-0.02,-0.99,0.08,-0.79,-84.56,-85.1
38540.0,0.6,0.36,-1.15,-0.03,-0.99,0.09,-0.74,-84.51,-84.99
38608.0,0.66,0.53,-1.11,-0.03,-0.99,0.08,-0.74,-84.51,-84.98
38676.0,0.61,0.5,-1.11,-0.0,-0.99,0.08,-0.75,-84.52,-85.02
38740.0,0.63,0.13,-1.07,-0.01,-1.0,0.09,-0.73,-84.5,-84.99
38808.0,0.69,0.11,-1.08,-0.03,-0.99,0.08,-0.71,-84.48,-84.95
38876.0,0.61,0.3,-1.15,-0.03,-0.99,0.09,-0.67,-84.44,-84.86
38940.0,0.62,0.67,-1.15,-0.01,-0.99,0.08,-0.68,-84.45,-84.9
39008.0,0.62,0.44,-1.14,-0.01,-0.99,0.08,-0.69,-84.46,-84.94
39076.0,0.64,0.44,-1.14,-0.03,-0.99,0.08,-0.7,-84.47,-84.97
39141.0,0.65,0.54,-1.16,-0.02,-0.99,0.08,-0.7,-84.47,-84.97
39208.0,0.6,0.49,-1.13,-0.02,-0.99,0.08,-0.71,-84.48,-85.01
39273.0,0.61,0.28,-1.11,-0.02,-0.99,0.08,-0.71,-84.48,-85.01
39341.0,0.64,0.4,-1.1,-0.02,-0.99,0.09,-0.71,-84.48,-85.0
39408.0,0.64,0.34,-1.16,-0.03,-0.99,0.08,-0.7,-84.47,-84.98
39473.0,0.68,0.51,-1.13,-0.02,-0.99,0.08,-0.71,-84.48,-85.01
39540.0,0.62,0.24,-1.13,-0.02,-0.99,0.08,-0.7,-84.47,-85.01
39608.0,0.6,0.33,-1.08,-0.02,-0.99,0.08,-0.74,-84.51,-85.09
39672.0,0.64,0.33,-1.15,-0.02,-0.99,0.07,-0.78,-84.55,-85.18
39741.0,0.62,0.5,-1.15,-0.02,-0.99,0.09,-0.76,-84.53,-85.12
39809.0,0.67,0.52,-1.15,-0.02,-0.99,0.08,-0.77,-84.54,-85.16
39873.0,0.7,0.43,-1.21,-0.02,-0.99,0.08,-0.8,-84.57,-85.22
39941.0,0.67,0.5,-1.21,-0.01,-0.99,0.08,-0.82,-84.59,-85.26
40005.0,0.66,0.47,-1.21,-0.02,-0.99,0.08,-0.81,-84.58,-85.23
40073.0,0.63,0.24,-1.17,-0.02,-0.99,0.09,-0.8,-84.57,-85.19
40140.0,0.63,0.44,-1.11,-0.01,-0.99,0.08,-0.82,-84.59,-85.24
40205.0,0.64,0.29,-1.15,-0.02,-1.0,0.09,-0.8,-84.57,-85.19
40272.0,0.66,0.43,-1.08,-0.01,-0.99,0.08,-0.8,-84.57,-85.18
40341.0,0.63,0.42,-1.1,-0.01,-0.99,0.08,-0.82,-84.59,-85.21
40406.0,0.66,0.42,-1.06,-0.01,-0.99,0.08,-0.82,-84.59,-85.22
40473.0,0.61,0.31,-1.06,-0.02,-0.99,0.09,-0.8,-84.57,-85.16
40541.0,0.66,0.47,-1.08,-0.01,-0.99,0.09,-0.79,-84.56,-85.13
40605.0,0.67,0.31,-1.04,-0.01,-0.99,0.08,-0.81,-84.58,-85.18
40673.0,0.63,0.28,-1.03,-0.02,-0.99,0.07,-0.87,-84.64,-85.32
40741.0,0.62,0.34,-1.06,-0.03,-0.99,0.08,-0.86,-84.63,-85.28
40806.0,0.63,0.51,-1.08,-0.02,-1.0,0.08,-0.87,-84.64,-85.3
40873.0,0.67,0.55,-1.08,-0.02,-0.99,0.09,-0.83,-84.6,-85.19
40938.0,0.7,0.41,-1.06,-0.01,-0.99,0.08,-0.83,-84.6,-85.19
41006.0,0.65,0.31,-1.07,-0.02,-0.99,0.07,-0.87,-84.64,-85.28
41073.0,0.68,0.29,-1.09,-0.03,-0.99,0.08,-0.87,-84.64,-85.28
41138.0,0.63,0.35,-1.09,-0.02,-0.99,0.08,-0.87,-84.64,-85.28
41205.0,0.63,0.3,-1.12,-0.02,-0.99,0.08,-0.87,-84.64,-85.27
41274.0,0.62,0.35,-1.08,-0.02,-0.99,0.09,-0.85,-84.62,-85.21
41338.0,0.67,0.43,-1.11,-0.02,-0.99,0.08,-0.84,-84.61,-85.2
41406.0,0.63,0.48,-1.09,-0.02,-0.99,0.09,-0.83,-84.6,-85.15
41474.0,0.63,0.34,-1.08,-0.02,-0.99,0.09,-0.78,-84.55,-85.05
41538.0,0.6,0.31,-1.04,-0.01,-0.99,0.09,-0.78,-84.55,-85.05
41606.0,0.63,0.27,-1.05,-0.02,-0.99,0.08,-0.78,-84.55,-85.05
41673.0,0.66,0.34,-1.08,-0.03,-0.99,0.08,-0.76,-84.53,-85.03
41738.0,0.63,0.44,-1.09,-0.02,-0.99,0.09,-0.75,-84.52,-85.0
41806.0,0.65,0.43,-1.11,-0.02,-0.99,0.08,-0.75,-84.52,-85.01
41871.0,0.65,0.41,-1.1,-0.02,-0.99,0.08,-0.75,-84.52,-85.02
41938.0,0.63,0.34,-1.13,-0.02,-0.99,0.08,-0.76,-84.53,-85.04
42006.0,0.68,0.37,-1.16,-0.02,-0.99,0.09,-0.73,-84.5,-85.0
42071.0,0.62,0.45,-1.15,-0.02,-0.99,0.09,-0.71,-84.48,-84.96
42138.0,0.63,0.39,-1.13,-0.02,-0.99,0.09,-0.69,-84.46,-84.91
42206.0,0.62,0.38,-1.11,-0.02,-0.99,0.08,-0.7,-84.47,-84.95
42270.0,0.61,0.33,-1.13,-0.02,-0.99,0.08,-0.72,-84.49,-84.99
42338.0,0.66,0.45,-1.12,-0.02,-0.99,0.09,-0.7,-84.47,-84.96
42406.0,0.69,0.44,-1.11,-0.02,-0.99,0.08,-0.71,-84.48,-85.0
42470.0,0.62,0.44,-1.11,-0.01,-0.99,0.08,-0.73,-84.5,-85.05
42539.0,0.63,0.31,-1.08,-0.01,-1.0,0.08,-0.73,-84.5,-85.05
42602.0,0.63,0.39,-1.09,-0.03,-0.99,0.08,-0.73,-84.51,-85.06
42671.0,0.63,0.44,-1.09,-0.02,-0.99,0.08,-0.77,-84.54,-85.13
42738.0,0.63,0.43,-1.06,-0.02,-0.99,0.07,-0.81,-84.58,-85.24
42803.0,0.55,0.35,-1.08,-0.03,-0.99,0.08,-0.81,-84.58,-85.22
42870.0,0.56,0.48,-1.09,-0.01,-0.99,0.09,-0.8,-84.57,-85.18
42938.0,0.6,0.37,-1.08,-0.02,-0.99,0.08,-0.81,-84.58,-85.19
43002.0,0.62,0.36,-1.08,-0.02,-0.99,0.07,-0.84,-84.61,-85.26
43070.0,0.61,0.53,-1.08,-0.03,-0.99,0.07,-0.89,-84.66,-85.35
43138.0,0.64,0.54,-1.1,-0.01,-0.99,0.08,-0.9,-84.67,-85.38
43202.0,0.64,0.46,-1.13,-0.02,-0.99,0.08,-0.89,-84.66,-85.34
43270.0,0.66,0.31,-1.11,-0.02,-0.99,0.08,-0.88,-84.66,-85.31
43334.0,0.67,0.32,-1.09,-0.02,-0.99,0.08,-0.88,-84.65,-85.29
43402.0,0.63,0.19,-1.07,-0.03,-1.0,0.08,-0.88,-84.65,-85.27
43469.0,0.65,0.44,-1.11,-0.02,-0.99,0.09,-0.85,-84.62,-85.22
43534.0,0.66,0.52,-1.12,-0.02,-0.99,0.07,-0.89,-84.66,-85.29
43601.0,0.62,0.5,-1.11,-0.02,-0.99,0.08,-0.88,-84.65,-85.26
43669.0,0.69,0.4,-1.13,-0.02,-0.99,0.08,-0.86,-84.63,-85.21
43734.0,0.6,0.47,-1.08,-0.02,-0.99,0.08,-0.85,-84.62,-85.18
43801.0,0.66,0.34,-1.09,-0.02,-0.99,0.08,-0.84,-84.61,-85.17
43868.0,0.66,0.27,-1.11,-0.02,-0.99,0.09,-0.82,-84.59,-85.12
43934.0,0.69,0.22,-1.08,-0.02,-0.99,0.09,-0.8,-84.57,-85.08
44002.0,0.66,0.45,-1.13,-0.03,-0.99,0.09,-0.76,-84.53,-85.0
44066.0,0.62,0.63,-1.13,-0.02,-0.99,0.09,-0.75,-84.52,-84.98
44134.0,0.66,0.56,-1.11,-0.01,-0.99,0.09,-0.73,-84.5,-84.95
44201.0,0.71,0.33,-1.08,-0.02,-1.0,0.09,-0.71,-84.48,-84.93
44266.0,0.58,0.33,-1.09,-0.03,-0.99,0.08,-0.72,-84.49,-84.96
44334.0,0.66,0.26,-1.09,-0.03,-0.99,0.08,-0.72,-84.49,-84.98
44401.0,0.66,0.44,-1.13,-0.02,-0.99,0.08,-0.73,-84.5,-84.99
44466.0,0.6,0.53,-1.11,-0.02,-0.99,0.09,-0.71,-84.48,-84.96
44533.0,0.64,0.39,-1.13,-0.02,-0.99,0.08,-0.71,-84.48,-84.97
44600.0,0.69,0.29,-1.15,-0.02,-0.99,0.08,-0.71,-84.48,-84.97
44665.0,0.6,0.29,-1.11,-0.02,-0.99,0.08,-0.7,-84.47,-84.96
44734.0,0.63,0.33,-1.13,-0.02,-0.99,0.08,-0.73,-84.5,-85.05
44797.0,0.68,0.4,-1.14,-0.02,-0.99,0.08,-0.76,-84.53,-85.11
44866.0,0.63,0.39,-1.16,-0.02,-0.99,0.08,-0.78,-84.55,-85.14
44934.0,0.6,0.36,-1.15,-0.02,-0.99,0.09,-0.76,-84.53,-85.11
44998.0,0.63,0.35,-1.16,-0.02,-0.99,0.08,-0.76,-84.53,-85.1
45066.0,0.63,0.39,-1.12,-0.02,-0.99,0.08,-0.76,-84.53,-85.09
45133.0,0.62,0.28,-1.08,-0.02,-1.0,0.08,-0.76,-84.53,-85.1
45198.0,0.58,0.32,-1.11,-0.01,-0.99,0.08,-0.78,-84.55,-85.15
45265.0,0.69,0.51,-1.18,-0.03,-0.99,0.09,-0.75,-84.52,-85.07
45332.0,0.64,0.53,-1.11,-0.02,-0.99,0.09,-0.71,-84.48,-84.99
45398.0,0.64,0.4,-1.08,-0.01,-0.99,0.09,-0.71,-84.48,-84.99
45465.0,0.59,0.34,-1.05,-0.02,-0.99,0.08,-0.73,-84.5,-85.02
45530.0,0.59,0.33,-1.14,-0.02,-0.99,0.08,-0.74,-84.51,-85.07
45597.0,0.59,0.41,-1.13,-0.02,-0.99,0.09,-0.72,-84.49,-85.01
45665.0,0.61,0.28,-1.13,-0.02,-0.99,0.08,-0.74,-84.51,-85.05
45729.0,0.65,0.32,-1.08,-0.01,-0.99,0.08,-0.75,-84.52,-85.08
45797.0,0.62,0.35,-1.13,-0.02,-0.99,0.08,-0.74,-84.52,-85.07
45863.0,0.62,0.46,-1.14,-0.02,-0.99,0.08,-0.74,-84.51,-85.06
45929.0,0.64,0.41,-1.11,-0.02,-0.99,0.08,-0.75,-84.52,-85.08
45997.0,0.64,0.3,-1.13,-0.02,-0.99,0.08,-0.76,-84.53,-85.1
46061.0,0.66,0.47,-1.08,-0.02,-0.99,0.08,-0.74,-84.51,-85.06
46129.0,0.66,0.33,-1.08,-0.01,-0.99,0.09,-0.73,-84.5,-85.04
46197.0,0.6,0.47,-1.11,-0.02,-0.99,0.08,-0.76,-84.53,-85.11
46261.0,0.63,0.5,-1.11,-0.01,-0.99,0.08,-0.79,-84.56,-85.17
46329.0,0.63,0.49,-1.11,-0.01,-0.99,0.08,-0.8,-84.57,-85.18
46397.0,0.63,0.33,-1.11,-0.01,-0.99,0.08,-0.81,-84.58,-85.2
46461.0,0.63,0.31,-1.11,-0.02,-1.0,0.08,-0.8,-84.57,-85.18
46529.0,0.62,0.38,-1.1,-0.02,-0.99,0.08,-0.8,-84.57,-85.16
46595.0,0.6,0.48,-1.15,-0.01,-1.0,0.08,-0.81,-84.58,-85.18
46661.0,0.63,0.37,-1.1,-0.02,-0.99,0.08,-0.81,-84.58,-85.19
46729.0,0.66,0.44,-1.1,-0.02,-0.99,0.08,-0.81,-84.58,-85.18
46793.0,0.66,0.27,-1.04,-0.01,-0.99,0.08,-0.83,-84.6,-85.23
46861.0,0.64,0.21,-1.08,-0.02,-0.99,0.08,-0.84,-84.61,-85.24
46928.0,0.7,0.42,-1.08,-0.03,-1.0,0.07,-0.88,-84.65,-85.32
46993.0,0.68,0.54,-1.11,-0.02,-0.99,0.08,-0.86,-84.63,-85.28
47060.0,0.65,0.45,-1.1,-0.01,-1.0,0.08,-0.86,-84.63,-85.27
47127.0,0.68,0.43,-1.11,-0.01,-0.99,0.08,-0.88,-84.65,-85.31
47193.0,0.7,0.36,-1.11,-0.02,-1.0,0.08,-0.87,-84.64,-85.27
47260.0,0.66,0.28,-1.08,-0.01,-0.99,0.08,-0.86,-84.63,-85.25
47327.0,0.61,0.25,-1.08,-0.02,-0.99,0.08,-0.85,-84.62,-85.22
47392.0,0.64,0.35,-1.1,-0.02,-0.99,0.08,-0.87,-84.64,-85.27
47460.0,0.63,0.4,-1.07,-0.02,-0.99,0.09,-0.84,-84.61,-85.19
47524.0,0.61,0.46,-1.06,-0.02,-0.99,0.08,-0.85,-84.62,-85.2
47592.0,0.63,0.46,-1.11,-0.02,-0.99,0.08,-0.86,-84.63,-85.24
47659.0,0.65,0.47,-1.13,-0.02,-0.99,0.08,-0.87,-84.64,-85.24
47724.0,0.61,0.53,-1.07,-0.01,-0.99,0.08,-0.87,-84.64,-85.24
47792.0,0.59,0.26,-1.09,-0.02,-0.99,0.08,-0.87,-84.64,-85.24
47858.0,0.63,0.27,-1.05,-0.01,-0.99,0.08,-0.88,-84.65,-85.25
47924.0,0.58,0.3,-1.06,-0.03,-0.99,0.08,-0.89,-84.66,-85.26
47992.0,0.62,0.44,-1.07,-0.02,-0.99,0.08,-0.88,-84.65,-85.23
48056.0,0.59,0.4,-1.1,-0.02,-0.99,0.08,-0.87,-84.64,-85.2
48124.0,0.66,0.26,-1.14,-0.02,-0.99,0.09,-0.84,-84.61,-85.15
48190.0,0.69,0.05,-1.22,-0.03,-0.99,0.08,-0.85,-84.62,-85.16
48257.0,0.64,0.2,-1.37,-0.04,-0.99,0.09,-0.79,-84.56,-85.03
48324.0,0.66,0.69,-1.5,-0.04,-0.99,0.08,-0.77,-84.54,-84.99
48390.0,0.6,0.92,-1.58,-0.03,-0.99,0.09,-0.74,-84.51,-84.94
48456.0,0.63,0.76,-1.87,-0.01,-0.99,0.09,-0.72,-84.49,-84.91
48524.0,0.79,0.73,-2.34,-0.03,-0.99,0.08,-0.73,-84.5,-84.95
48589.0,0.73,0.98,-2.76,-0.03,-0.99,0.08,-0.73,-84.5,-84.97
48656.0,0.89,0.73,-3.31,0.01,-0.99,0.08,-0.75,-84.52,-85.05
48723.0,0.82,0.85,-3.31,0.08,-0.98,0.08,-0.86,-84.4,-84.8
48788.0,0.69,1.33,-3.39,0.07,-0.98,0.1,-1.02,-84.24,-84.44
48856.0,1.37,-0.2,-3.54,0.18,-0.98,0.07,-1.47,-83.79,-83.5
48921.0,1.14,-2.22,-3.31,0.1,-0.97,0.11,-1.71,-83.55,-83.09
48988.0,1.88,-1.11,-3.91,0.14,-1.04,0.07,-1.96,-83.31,-82.73
49055.0,1.75,1.27,-3.39,0.14,-0.97,0.08,-2.25,-83.01,-82.27
49121.0,0.55,2.02,-3.56,0.18,-0.96,0.07,-2.58,-82.68,-81.63
49187.0,1.15,1.14,-2.8,0.2,-0.98,0.13,-3.09,-82.18,-80.67
49255.0,1.33,-0.08,-1.87,0.31,-0.96,0.15,-3.98,-81.28,-78.86
49319.0,1.56,-0.25,-2.4,0.29,-0.93,0.18,-4.86,-80.41,-77.23
49387.0,1.62,-0.42,-3.38,0.2,-0.97,0.1,-5.19,-80.07,-76.94
49454.0,1.37,1.91,-3.43,0.2,-0.96,0.19,-5.7,-79.56,-76.21
49519.0,1.99,0.79,-3.68,0.32,-0.9,0.19,-6.69,-78.57,-74.44
49587.0,2.14,-1.92,-4.74,0.39,-0.86,0.09,-7.77,-77.49,-72.57
49653.0,2.12,0.21,-6.63,0.42,-0.85,0.23,-9.11,-76.16,-70.17
49720.0,2.41,0.44,-8.56,0.42,-0.81,0.24,-10.44,-74.82,-67.91
49787.0,1.97,-0.02,-9.89,0.48,-0.76,0.21,-11.93,-73.33,-65.36
49853.0,1.29,-0.55,-11.61,0.58,-0.74,0.15,-13.56,-71.7,-62.52
49920.0,2.4,-1.21,-12.24,0.62,-0.76,0.31,-15.4,-69.86,-59.42
49987.0,2.59,-0.55,-11.61,0.65,-0.76,0.28,-17.14,-68.12,-56.72
50054.0,0.98,0.39,-9.48,0.69,-0.77,0.19,-18.67,-66.59,-54.44
50120.0,1.52,-0.26,-8.44,0.8,-0.82,0.24,-20.31,-64.95,-52.06
50188.0,-0.37,-1.72,-7.52,0.83,-0.45,0.17,-22.89,-62.38,-47.41
50252.0,0.92,-2.16,-6.39,1.09,-0.48,0.27,-25.69,-59.58,-42.53
50320.0,-0.03,-0.99,-2.56,0.97,-0.44,0.24,-28.19,-57.07,-38.54
50385.0,0.27,-1.24,-1.82,0.87,-0.29,0.16,-30.94,-54.32,-34.11
50452.0,1.01,-0.18,-2.06,0.91,-0.44,0.1,-33.02,-52.24,-31.51
50520.0,0.32,-0.29,-2.4,0.89,-0.52,0.12,-34.59,-50.68,-30.12
50586.0,-0.89,0.5,-2.76,0.94,-0.44,0.18,-36.35,-48.91,-28.08
50652.0,-0.53,-0.34,-2.27,0.95,-0.36,0.18,-38.31,-46.95,-25.67
50719.0,0.64,0.02,-1.56,0.93,-0.33,0.13,-40.29,-44.97,-23.37
50786.0,0.64,0.45,-1.21,0.93,-0.36,0.08,-41.99,-43.27,-21.73
50851.0,0.63,1.24,-1.21,0.92,-0.41,0.09,-43.39,-41.87,-20.8
50920.0,0.37,1.48,-1.17,0.93,-0.39,0.12,-44.75,-40.52,-19.89
50983.0,0.4,1.73,-1.15,0.94,-0.37,0.17,-46.12,-39.15,-18.86
51052.0,0.47,1.08,-1.08,0.94,-0.37,0.21,-47.42,-37.85,-18.02
51118.0,0.86,0.4,-1.05,0.94,-0.39,0.19,-48.58,-36.69,-17.43
51184.0,0.85,-0.04,-1.09,0.93,-0.41,0.16,-49.57,-35.7,-17.19
51252.0,0.53,0.03,-1.19,0.93,-0.4,0.15,-50.49,-34.77,-16.99
51317.0,0.5,-0.01,-1.15,0.93,-0.37,0.14,-51.46,-33.81,-16.59
51384.0,0.98,0.81,-1.04,0.92,-0.38,0.17,-52.33,-32.93,-16.4
51451.0,-0.03,-0.04,-0.85,0.88,-0.36,0.2,-53.09,-32.17,-16.31
51517.0,0.74,0.31,-1.0,0.97,-0.39,0.17,-53.87,-31.4,-16.16
51584.0,0.74,0.49,-0.92,0.92,-0.38,0.15,-54.57,-30.69,-16.12
51649.0,0.89,0.16,-0.9,0.93,-0.39,0.16,-55.19,-30.07,-16.22
51716.0,0.92,0.15,-0.96,0.93,-0.4,0.15,-55.75,-29.52,-16.4
51783.0,0.79,0.15,-1.06,0.93,-0.39,0.13,-56.3,-28.97,-16.5
51850.0,0.74,0.26,-1.08,0.92,-0.39,0.14,-56.78,-28.49,-16.66
51915.0,0.67,0.21,-1.12,0.93,-0.4,0.14,-57.21,-28.05,-16.87
51984.0,0.61,0.2,-1.14,0.94,-0.39,0.16,-57.66,-27.61,-16.98
52049.0,0.78,-0.34,-1.12,0.94,-0.38,0.18,-58.13,-27.13,-16.97
52116.0,1.29,-1.26,-1.07,0.94,-0.38,0.18,-58.61,-26.65,-16.95
52184.0,1.53,-1.63,-1.06,0.92,-0.39,0.1,-58.99,-26.27,-17.14
52249.0,1.9,-0.9,-1.37,0.94,-0.45,0.07,-59.18,-26.08,-17.73
52316.0,0.58,-1.69,-2.02,0.93,-0.4,0.09,-59.42,-25.84,-18.01
52381.0,1.11,-0.47,-1.27,0.87,-0.34,0.11,-59.83,-25.43,-17.91
52447.0,1.63,-1.18,-0.69,0.96,-0.39,0.04,-60.18,-25.09,-17.95
52515.0,1.09,-0.66,-1.02,0.93,-0.39,0.09,-60.42,-24.84,-18.14
52581.0,0.91,-1.58,-1.23,0.97,-0.39,0.02,-60.69,-24.57,-18.2
52647.0,0.39,-0.61,-1.07,0.85,-0.37,-0.03,-60.76,-24.5,-18.66
52715.0,0.21,2.52,-0.51,0.84,-0.38,-0.02,-60.8,-24.46,-19.12
52781.0,0.79,2.83,-1.13,1.13,-0.43,0.11,-61.11,-24.15,-18.95
52847.0,-0.59,0.66,-0.4,0.83,-0.35,0.13,-61.19,-24.07,-19.17
52913.0,1.05,1.71,-1.08,1.01,-0.44,0.04,-61.29,-23.98,-19.49
52979.0,0.53,2.18,-1.11,0.93,-0.41,0.1,-61.36,-23.9,-19.77
53047.0,0.46,0.4,-1.38,0.94,-0.4,0.13,-61.45,-23.81,-19.94
53112.0,0.21,0.25,-1.22,0.91,-0.39,0.13,-61.54,-23.73,-20.1
53179.0,0.55,-0.31,-1.19,0.95,-0.37,0.09,-61.75,-23.52,-19.97
53246.0,0.85,0.22,-1.08,0.93,-0.39,0.06,-61.86,-23.4,-20.08
53312.0,0.68,0.49,-1.09,0.92,-0.39,0.05,-61.92,-23.34,-20.28
53379.0,0.5,0.95,-1.15,0.94,-0.39,0.06,-61.99,-23.27,-20.42
53444.0,0.38,0.95,-1.18,0.94,-0.38,0.09,-62.09,-23.17,-20.46
53511.0,0.35,0.88,-1.21,0.93,-0.38,0.09,-62.17,-23.09,-20.53
53578.0,-0.38,0.34,-1.35,0.94,-0.38,0.06,-62.21,-23.06,-20.62
53645.0,0.16,1.67,-1.22,0.94,-0.37,0.07,-62.31,-22.95,-20.58
53710.0,0.31,1.47,-1.02,0.93,-0.38,0.09,-62.41,-22.85,-20.58
53778.0,0.59,1.62,-1.0,0.94,-0.39,0.12,-62.48,-22.78,-20.65
53844.0,0.66,0.7,-1.01,0.93,-0.38,0.16,-62.58,-22.68,-20.65
53911.0,1.02,-0.07,-0.94,0.94,-0.37,0.16,-62.73,-22.53,-20.55
53979.0,1.14,-0.46,-0.94,0.93,-0.4,0.1,-62.78,-22.48,-20.7
54044.0,0.93,-0.15,-1.02,0.93,-0.4,0.06,-62.78,-22.48,-20.93
54111.0,0.58,0.46,-1.12,0.93,-0.4,0.07,-62.77,-22.49,-21.12
54177.0,0.41,0.63,-1.17,0.93,-0.39,0.1,-62.79,-22.47,-21.21
54245.0,0.65,0.47,-1.15,0.94,-0.39,0.12,-62.86,-22.41,-21.21
54310.0,0.76,0.38,-1.1,0.93,-0.39,0.1,-62.89,-22.37,-21.28
54377.0,0.63,0.42,-1.19,0.93,-0.4,0.1,-62.89,-22.37,-21.42
54445.0,0.5,0.45,-1.11,0.93,-0.38,0.11,-62.93,-22.33,-21.42
54511.0,0.67,0.49,-1.05,0.94,-0.38,0.11,-63.0,-22.27,-21.39
54577.0,0.72,0.25,-1.05,0.94,-0.39,0.11,-63.04,-22.23,-21.42
54643.0,0.76,0.33,-1.07,0.93,-0.4,0.1,-63.02,-22.24,-21.58
54711.0,0.49,0.33,-1.13,0.93,-0.4,0.1,-63.0,-22.27,-21.72
54777.0,0.53,0.42,-1.1,0.93,-0.38,0.1,-63.04,-22.22,-21.69
54843.0,0.69,0.37,-1.11,0.93,-0.39,0.1,-63.04,-22.22,-21.77
54912.0,0.72,0.5,-1.18,0.93,-0.39,0.1,-63.04,-22.22,-21.86
54977.0,0.61,0.48,-1.16,0.94,-0.39,0.1,-63.07,-22.19,-21.85
55044.0,0.58,0.37,-1.12,0.94,-0.39,0.11,-63.1,-22.16,-21.85
55109.0,0.6,0.32,-1.1,0.94,-0.39,0.11,-63.13,-22.14,-21.85
55178.0,0.64,0.25,-1.08,0.93,-0.39,0.1,-63.15,-22.12,-21.87
55243.0,0.69,0.28,-1.07,0.93,-0.39,0.1,-63.16,-22.1,-21.91
55310.0,0.66,0.35,-1.11,0.93,-0.4,0.1,-63.15,-22.12,-22.0
55377.0,0.6,0.47,-1.18,0.94,-0.39,0.09,-63.15,-22.11,-22.03
55443.0,0.59,0.5,-1.15,0.93,-0.39,0.1,-63.16,-22.1,-22.04
55510.0,0.61,0.47,-1.14,0.93,-0.39,0.11,-63.18,-22.09,-22.05
55576.0,0.64,0.39,-1.11,0.94,-0.39,0.1,-63.2,-22.07,-22.05
55644.0,0.64,0.32,-1.12,0.93,-0.39,0.1,-63.2,-22.06,-22.07
55709.0,0.65,0.31,-1.11,0.94,-0.39,0.1,-63.22,-22.04,-22.08
55776.0,0.66,0.36,-1.11,0.93,-0.39,0.09,-63.22,-22.05,-22.13
55842.0,0.63,0.42,-1.11,0.93,-0.39,0.1,-63.23,-22.04,-22.14
55910.0,0.63,0.44,-1.1,0.93,-0.39,0.1,-63.22,-22.04,-22.17
55975.0,0.65,0.45,-1.11,0.94,-0.39,0.1,-63.24,-22.02,-22.16
56042.0,0.63,0.4,-1.11,0.93,-0.39,0.1,-63.25,-22.01,-22.18
56110.0,0.65,0.38,-1.13,0.93,-0.39,0.11,-63.26,-22.01,-22.19
56176.0,0.65,0.38,-1.11,0.93,-0.39,0.1,-63.26,-22.0,-22.21
56242.0,0.66,0.35,-1.11,0.94,-0.39,0.1,-63.28,-21.99,-22.19
56310.0,0.64,0.37,-1.12,0.93,-0.39,0.11,-63.28,-21.98,-22.21
56376.0,0.59,0.44,-1.13,0.93,-0.39,0.1,-63.28,-21.98,-22.22
56442.0,0.63,0.45,-1.12,0.93,-0.39,0.1,-63.28,-21.98,-22.26
56510.0,0.63,0.43,-1.13,0.94,-0.39,0.1,-63.28,-21.98,-22.26
56577.0,0.68,0.44,-1.14,0.94,-0.39,0.1,-63.31,-21.95,-22.23
56642.0,0.66,0.5,-1.08,0.92,-0.39,0.11,-63.28,-21.98,-22.31
56709.0,0.52,0.37,-1.15,0.93,-0.39,0.1,-63.27,-22.0,-22.36
56776.0,0.61,0.4,-1.1,0.93,-0.38,0.11,-63.28,-21.98,-22.32
56843.0,0.67,0.37,-1.1,0.93,-0.39,0.1,-63.28,-21.98,-22.34
56909.0,0.7,0.47,-1.11,0.94,-0.39,0.1,-63.29,-21.97,-22.34
56975.0,0.67,0.52,-1.09,0.93,-0.4,0.11,-63.27,-21.99,-22.4
57043.0,0.55,0.37,-1.17,0.93,-0.39,0.11,-63.27,-22.0,-22.41
57109.0,0.7,0.47,-1.14,0.93,-0.39,0.11,-63.28,-21.98,-22.4
57176.0,0.63,0.4,-1.13,0.93,-0.39,0.11,-63.29,-21.98,-22.39
57243.0,0.66,0.37,-1.11,0.93,-0.39,0.11,-63.29,-21.97,-22.39
57310.0,0.62,0.22,-1.13,0.93,-0.39,0.11,-63.28,-21.98,-22.42
57375.0,0.67,0.32,-1.13,0.93,-0.39,0.1,-63.29,-21.98,-22.42
57443.0,0.66,0.36,-1.11,0.93,-0.39,0.1,-63.31,-21.96,-22.39
57509.0,0.64,0.44,-1.11,0.94,-0.39,0.09,-63.32,-21.94,-22.35
57576.0,0.68,0.48,-1.08,0.94,-0.38,0.1,-63.35,-21.91,-22.31
57644.0,0.6,0.42,-1.11,0.93,-0.39,0.11,-63.35,-21.91,-22.31
57710.0,0.63,0.32,-1.12,0.94,-0.38,0.11,-63.38,-21.88,-22.26
57776.0,0.61,0.25,-1.11,0.94,-0.39,0.09,-63.38,-21.88,-22.27
57844.0,0.67,0.46,-1.09,0.93,-0.38,0.09,-63.4,-21.87,-22.25
57910.0,0.55,0.34,-1.1,0.93,-0.38,0.09,-63.4,-21.86,-22.24
57976.0,0.66,0.43,-1.08,0.94,-0.39,0.1,-63.41,-21.85,-22.24
58044.0,0.65,0.41,-1.1,0.93,-0.39,0.1,-63.4,-21.86,-22.28
58110.0,0.64,0.38,-1.1,0.94,-0.39,0.1,-63.4,-21.86,-22.29
58176.0,0.59,0.5,-1.13,0.94,-0.39,0.1,-63.4,-21.86,-22.29
58245.0,0.6,0.47,-1.11,0.94,-0.39,0.11,-63.4,-21.86,-22.3
58310.0,0.66,0.27,-1.11,0.93,-0.38,0.1,-63.43,-21.83,-22.25
58377.0,0.7,0.25,-1.04,0.93,-0.38,0.1,-63.44,-21.82,-22.24
58443.0,0.66,0.34,-1.08,0.94,-0.39,0.09,-63.42,-21.84,-22.3
58509.0,0.69,0.6,-1.1,0.93,-0.39,0.09,-63.42,-21.84,-22.32
58577.0,0.59,0.63,-1.14,0.93,-0.39,0.1,-63.41,-21.86,-22.35
58643.0,0.58,0.56,-1.17,0.94,-0.39,0.11,-63.41,-21.85,-22.34
58710.0,0.62,0.32,-1.12,0.94,-0.38,0.11,-63.43,-21.83,-22.29
58777.0,0.7,0.24,-1.07,0.94,-0.39,0.11,-63.45,-21.81,-22.26
58844.0,0.69,0.31,-1.09,0.93,-0.39,0.1,-63.44,-21.82,-22.3
58909.0,0.55,0.27,-1.16,0.94,-0.39,0.1,-63.43,-21.84,-22.34
58978.0,0.69,0.57,-1.13,0.93,-0.39,0.1,-63.43,-21.84,-22.35
59043.0,0.61,0.47,-1.14,0.93,-0.39,0.1,-63.42,-21.85,-22.38
59110.0,0.6,0.49,-1.1,0.93,-0.39,0.11,-63.42,-21.85,-22.37
59177.0,0.6,0.34,-1.12,0.94,-0.39,0.1,-63.43,-21.84,-22.35
59244.0,0.66,0.37,-1.11,0.94,-0.38,0.1,-63.45,-21.81,-22.3
59310.0,0.63,0.33,-1.11,0.93,-0.38,0.1,-63.46,-21.81,-22.29
59378.0,0.65,0.37,-1.08,0.94,-0.39,0.1,-63.45,-21.81,-22.3
59444.0,0.61,0.37,-1.15,0.93,-0.39,0.11,-63.45,-21.82,-22.33
59510.0,0.66,0.43,-1.11,0.94,-0.39,0.1,-63.45,-21.81,-22.33
59578.0,0.62,0.4,-1.09,0.93,-0.38,0.1,-63.46,-21.81,-22.31
59644.0,0.63,0.4,-1.1,0.93,-0.38,0.1,-63.47,-21.8,-22.29
59711.0,0.67,0.4,-1.12,0.93,-0.39,0.11,-63.46,-21.8,-22.31
59779.0,0.63,0.36,-1.1,0.93,-0.39,0.1,-63.46,-21.8,-22.32
59845.0,0.65,0.37,-1.08,0.94,-0.39,0.1,-63.46,-21.8,-22.33
59911.0,0.66,0.42,-1.11,0.94,-0.39,0.1,-63.44,-21.82,-22.37
59977.0,0.63,0.41,-1.15,0.93,-0.39,0.1,-63.44,-21.82,-22.38
60044.0,0.63,0.4,-1.1,0.94,-0.39,0.1,-63.45,-21.82,-22.36
60111.0,0.66,0.37,-1.11,0.93,-0.39,0.1,-63.45,-21.81,-22.35
60177.0,0.66,0.35,-1.11,0.93,-0.39,0.1,-63.44,-21.82,-22.38
60243.0,0.66,0.34,-1.1,0.94,-0.39,0.1,-63.45,-21.81,-22.36
60311.0,0.7,0.33,-1.08,0.94,-0.38,0.11,-63.47,-21.79,-22.31
60378.0,0.74,0.35,-1.08,0.94,-0.39,0.1,-63.45,-21.81,-22.38
60444.0,0.65,0.2,-1.17,0.93,-0.4,0.09,-63.41,-21.85,-22.48
60512.0,0.56,0.34,-1.24,0.93,-0.39,0.09,-63.39,-21.87,-22.51
60578.0,0.59,0.31,-1.17,0.95,-0.37,0.1,-63.45,-21.81,-22.34
60644.0,0.84,0.17,-1.06,0.94,-0.37,0.12,-63.53,-21.73,-22.17
60711.0,1.05,0.11,-1.1,0.93,-0.41,0.1,-63.46,-21.8,-22.39
60778.0,0.89,0.06,-1.28,0.93,-0.4,0.08,-63.42,-21.84,-22.51
60844.0,0.82,0.2,-1.41,0.94,-0.4,0.07,-63.41,-21.86,-22.55
60911.0,0.81,0.27,-1.44,0.92,-0.38,0.08,-63.42,-21.84,-22.5
60978.0,0.47,1.02,-1.42,0.94,-0.38,0.1,-63.43,-21.83,-22.47
61043.0,0.27,0.71,-1.5,0.95,-0.39,0.12,-63.44,-21.83,-22.41
61110.0,0.41,0.07,-1.57,0.94,-0.35,0.12,-63.58,-21.68,-22.04
61175.0,0.84,0.22,-1.48,0.96,-0.35,0.09,-63.77,-21.49,-21.64
61243.0,0.85,1.04,-1.59,0.95,-0.37,0.08,-63.85,-21.41,-21.52
61309.0,1.08,0.32,-1.27,0.94,-0.35,0.12,-63.98,-21.28,-21.31
61375.0,0.71,-0.35,-1.06,0.92,-0.36,0.09,-64.02,-21.24,-21.28
61443.0,0.84,-0.53,-1.39,0.96,-0.35,0.03,-64.15,-21.11,-21.05
61509.0,0.82,0.67,-1.51,0.96,-0.37,0.05,-64.2,-21.07,-21.03
61575.0,1.05,1.22,-1.6,0.97,-0.37,0.07,-64.28,-20.98,-20.93
61641.0,0.85,0.52,-1.92,0.97,-0.35,0.09,-64.41,-20.85,-20.72
61707.0,0.56,0.25,-2.36,0.96,-0.34,0.11,-64.54,-20.72,-20.48
61774.0,0.84,0.37,-2.71,0.97,-0.34,0.09,-64.71,-20.56,-20.19
61840.0,0.56,-0.05,-2.9,0.96,-0.32,0.08,-64.91,-20.35,-19.81
61906.0,0.51,-0.43,-3.05,0.98,-0.29,0.07,-65.22,-20.04,-19.19
61974.0,1.07,-0.23,-3.23,0.99,-0.28,0.08,-65.58,-19.68,-18.53
62041.0,1.2,-0.46,-3.38,0.98,-0.28,0.06,-65.92,-19.34,-17.98
62106.0,0.72,-0.94,-3.16,0.97,-0.24,0.05,-66.36,-18.9,-17.17
62173.0,0.56,-0.23,-2.82,0.97,-0.21,0.02,-66.86,-18.4,-16.25
62238.0,0.73,0.37,-2.56,0.98,-0.19,0.03,-67.42,-17.85,-15.25
62306.0,0.64,0.43,-1.97,0.97,-0.18,0.06,-67.96,-17.31,-14.33
62372.0,0.95,0.47,-1.59,0.98,-0.19,0.04,-68.45,-16.81,-13.58
62438.0,0.8,0.36,-1.53,1.01,-0.2,0.05,-68.9,-16.36,-12.95
62507.0,0.59,-0.21,-1.85,1.01,-0.19,0.02,-69.35,-15.91,-12.32
62572.0,0.41,0.28,-1.76,0.97,-0.16,0.04,-69.85,-15.41,-11.58
62639.0,0.56,0.4,-1.27,1.0,-0.15,0.02,-70.38,-14.88,-10.8
62706.0,0.59,0.13,-1.08,0.97,-0.16,0.01,-70.82,-14.44,-10.26
62773.0,0.22,0.22,-1.22,1.04,-0.17,0.03,-71.2,-14.06,-9.84
62838.0,0.79,-0.07,-1.44,0.99,-0.18,0.05,-71.51,-13.75,-9.64
62905.0,0.85,-0.08,-1.34,0.98,-0.19,0.02,-71.78,-13.49,-9.54
62970.0,0.69,0.38,-1.66,1.0,-0.17,0.03,-72.1,-13.16,-9.26
63039.0,1.21,0.47,-1.79,1.07,-0.16,0.02,-72.5,-12.76,-8.84
63105.0,0.63,-0.28,-2.2,1.03,-0.17,0.05,-72.77,-12.49,-8.68
63171.0,-0.44,-1.96,-2.55,1.03,-0.13,-0.0,-73.12,-12.15,-8.24
63239.0,-0.81,-3.12,-0.89,0.88,-0.03,-0.02,-73.79,-11.47,-7.0
63305.0,1.22,1.56,-1.89,1.15,-0.17,0.01,-74.09,-11.18,-6.89
63372.0,0.86,-0.3,-1.69,0.96,-0.16,0.0,-74.25,-11.01,-7.04
63439.0,0.43,0.6,-0.7,0.92,-0.18,-0.04,-74.26,-11.0,-7.45
63505.0,-0.11,0.33,-0.54,1.0,-0.1,-0.02,-74.65,-10.61,-6.9
63571.0,1.38,-1.53,0.05,0.99,-0.13,-0.05,-74.79,-10.47,-6.84
63639.0,0.76,0.11,-0.19,1.08,-0.11,-0.06,-75.07,-10.19,-6.48
63706.0,0.67,0.09,-0.92,1.07,-0.14,-0.07,-75.23,-10.03,-6.43
63771.0,0.79,-0.84,-0.69,0.97,-0.15,-0.03,-75.26,-10.01,-6.68
63840.0,1.21,-0.46,-0.59,1.02,-0.15,-0.09,-75.31,-9.95,-6.77
63905.0,0.91,-1.63,-0.31,1.09,-0.18,-0.06,-75.31,-9.96,-7.03
63972.0,1.11,0.62,-0.47,0.98,-0.2,-0.06,-75.13,-10.13,-7.64
64039.0,0.86,0.36,-0.69,0.91,-0.14,-0.07,-75.17,-10.09,-7.72
64106.0,0.4,0.38,-0.92,0.99,-0.14,-0.09,-75.29,-9.98,-7.64
64172.0,-0.44,0.57,-0.75,1.09,-0.13,-0.08,-75.53,-9.74,-7.35
64238.0,0.05,0.37,-0.81,0.98,-0.15,-0.06,-75.59,-9.68,-7.44
64304.0,0.61,0.45,-1.05,0.97,-0.17,-0.08,-75.54,-9.72,-7.72
64371.0,0.41,-0.1,-0.98,0.98,-0.16,-0.08,-75.53,-9.73,-7.89
64438.0,0.42,0.34,-0.9,1.0,-0.15,-0.08,-75.58,-9.68,-7.92
64503.0,0.3,0.07,-0.94,0.98,-0.16,-0.06,-75.59,-9.67,-8.04
64571.0,0.62,0.15,-1.1,1.0,-0.17,-0.06,-75.55,-9.72,-8.24
64637.0,0.15,0.34,-0.98,1.04,-0.18,-0.08,-75.54,-9.72,-8.37
64703.0,0.76,0.46,-1.18,0.99,-0.2,-0.08,-75.36,-9.9,-8.85
64770.0,0.71,0.58,-1.24,1.01,-0.18,-0.07,-75.32,-9.95,-8.99
64835.0,0.58,0.39,-1.15,1.0,-0.17,-0.07,-75.32,-9.95,-9.02
64904.0,0.66,0.29,-1.11,0.98,-0.17,-0.07,-75.29,-9.97,-9.1
64969.0,0.74,0.56,-1.05,1.02,-0.2,-0.08,-75.18,-10.08,-9.36
65036.0,0.68,0.07,-1.18,0.97,-0.16,-0.09,-75.18,-10.08,-9.36
65103.0,0.54,0.25,-1.21,1.02,-0.16,-0.09,-75.23,-10.03,-9.25
65170.0,1.08,0.44,-1.02,1.0,-0.2,-0.09,-75.08,-10.18,-9.58
65235.0,1.3,0.34,-0.55,0.95,-0.18,-0.08,-74.96,-10.3,-9.8
65303.0,1.31,0.08,-0.69,1.01,-0.18,-0.11,-74.91,-10.35,-9.82
65370.0,1.18,0.87,-0.58,1.02,-0.22,-0.12,-74.72,-10.54,-10.21
65435.0,0.83,-0.02,-1.09,0.94,-0.2,-0.06,-74.55,-10.71,-10.56
65503.0,1.11,1.78,-1.11,1.18,-0.17,-0.17,-74.66,-10.6,-10.21
65567.0,0.37,0.32,-0.97,0.98,-0.19,-0.09,-74.61,-10.65,-10.31
65635.0,1.13,0.25,-2.18,0.9,-0.21,0.07,-74.37,-10.89,-10.79
65701.0,1.17,1.44,-1.53,1.07,-0.21,-0.2,-74.29,-10.97,-10.87
65768.0,1.81,1.76,-1.31,1.05,-0.19,-0.11,-74.24,-11.02,-10.84
65836.0,0.11,0.76,-1.11,0.96,-0.16,-0.06,-74.35,-10.92,-10.59
65902.0,-0.31,1.38,-1.15,0.92,-0.18,-0.06,-74.33,-10.93,-10.67
65968.0,0.34,1.07,-1.18,0.99,-0.17,-0.07,-74.38,-10.88,-10.53
66035.0,0.5,1.16,-0.69,0.97,-0.16,-0.03,-74.44,-10.82,-10.39
66102.0,1.28,0.86,-0.91,1.0,-0.24,-0.07,-74.19,-11.08,-10.91
66168.0,0.02,0.99,-0.94,1.1,-0.18,-0.07,-74.29,-10.97,-10.66
66236.0,0.64,1.82,-1.04,0.98,-0.17,-0.02,-74.34,-10.92,-10.52
66301.0,0.89,1.11,-1.25,0.95,-0.25,-0.06,-74.03,-11.24,-11.21
66368.0,0.4,0.97,-1.21,1.09,-0.19,0.01,-74.11,-11.15,-10.96
66436.0,0.31,0.74,-0.88,0.95,-0.16,-0.0,-74.23,-11.04,-10.69
66500.0,1.01,1.28,-0.42,0.95,-0.19,-0.05,-74.14,-11.12,-10.83
66568.0,0.22,1.43,0.06,1.04,-0.22,0.04,-74.06,-11.21,-11.03
66634.0,0.34,0.92,-0.16,0.99,-0.18,0.06,-74.15,-11.11,-10.84
66700.0,0.58,0.21,-0.02,1.0,-0.23,0.0,-74.04,-11.22,-11.18
66767.0,0.72,0.59,0.06,0.97,-0.24,0.02,-73.89,-11.38,-11.6
66834.0,0.52,0.34,0.19,0.98,-0.22,0.02,-73.84,-11.43,-11.74
66899.0,0.63,0.4,0.08,1.01,-0.24,0.03,-73.74,-11.52,-11.97
66967.0,0.85,0.21,-0.1,1.0,-0.26,-0.01,-73.56,-11.7,-12.41
67032.0,1.09,1.24,-0.15,0.97,-0.28,-0.03,-73.34,-11.93,-12.95
67099.0,0.93,1.36,-0.18,0.94,-0.28,-0.0,-73.05,-12.21,-13.57
67165.0,1.1,0.8,0.26,0.94,-0.29,0.04,-72.77,-12.49,-14.18
67231.0,0.69,0.35,0.42,0.96,-0.29,0.04,-72.49,-12.77,-14.7
67299.0,0.56,0.55,0.38,0.98,-0.31,0.03,-72.19,-13.07,-15.23
67362.0,0.67,0.57,0.29,0.98,-0.33,0.0,-71.86,-13.4,-15.84
67430.0,0.73,0.31,0.16,0.98,-0.34,0.02,-71.48,-13.78,-16.51
67496.0,0.61,0.62,-0.41,0.98,-0.35,0.04,-71.12,-14.14,-17.11
67562.0,0.47,0.34,-0.9,0.98,-0.35,0.05,-70.76,-14.5,-17.66
67630.0,0.37,0.36,-0.99,0.95,-0.35,0.04,-70.37,-14.89,-18.27
67696.0,0.59,0.24,-0.71,0.96,-0.35,0.05,-70.05,-15.21,-18.71
67762.0,0.53,0.31,-0.81,0.96,-0.35,0.04,-69.74,-15.53,-19.1
67829.0,0.61,0.22,-0.9,0.95,-0.35,0.03,-69.44,-15.82,-19.47
67894.0,0.6,0.34,-0.85,0.96,-0.37,0.03,-69.11,-16.15,-19.9
67961.0,0.36,0.49,-1.05,0.94,-0.37,0.01,-68.75,-16.51,-20.37
68027.0,0.31,0.85,-1.19,0.95,-0.36,-0.0,-68.48,-16.78,-20.62
68093.0,0.0,1.31,-1.14,0.95,-0.36,0.06,-68.2,-17.06,-20.86
68161.0,0.28,0.85,-1.05,0.96,-0.35,0.07,-68.01,-17.25,-20.92
68226.0,0.79,0.47,-1.03,0.95,-0.36,0.06,-67.82,-17.44,-21.05
68293.0,0.85,0.37,-1.07,0.95,-0.37,0.04,-67.63,-17.64,-21.2
68361.0,0.67,0.43,-1.08,0.95,-0.37,0.03,-67.41,-17.86,-21.41
68425.0,0.6,0.4,-1.13,0.95,-0.36,0.04,-67.22,-18.04,-21.53
68493.0,0.66,0.45,-1.09,0.95,-0.36,0.04,-67.06,-18.2,-21.58
68558.0,0.73,0.38,-1.12,0.95,-0.37,0.05,-66.9,-18.36,-21.68
68624.0,0.65,0.37,-1.14,0.95,-0.36,0.04,-66.76,-18.51,-21.73
68692.0,0.63,0.42,-1.15,0.95,-0.36,0.05,-66.64,-18.62,-21.73
68756.0,0.59,0.42,-1.12,0.95,-0.36,0.04,-66.54,-18.72,-21.69
68824.0,0.64,0.39,-1.13,0.96,-0.36,0.04,-66.44,-18.82,-21.68
68890.0,0.62,0.37,-1.15,0.95,-0.36,0.04,-66.33,-18.93,-21.7
68956.0,0.62,0.34,-1.12,0.95,-0.36,0.05,-66.25,-19.01,-21.67
69024.0,0.66,0.34,-1.08,0.95,-0.36,0.04,-66.18,-19.08,-21.61
69090.0,0.68,0.34,-1.11,0.95,-0.36,0.04,-66.09,-19.17,-21.64
69156.0,0.63,0.37,-1.11,0.95,-0.37,0.04,-65.99,-19.27,-21.67
69224.0,0.62,0.38,-1.11,0.95,-0.36,0.04,-65.92,-19.35,-21.66
69288.0,0.62,0.39,-1.11,0.95,-0.36,0.03,-65.84,-19.42,-21.67
69356.0,0.6,0.34,-1.14,0.95,-0.36,0.05,-65.78,-19.48,-21.63
69424.0,0.65,0.33,-1.11,0.95,-0.36,0.06,-65.74,-19.52,-21.57
69488.0,0.96,0.09,-1.2,0.95,-0.37,0.06,-65.68,-19.59,-21.62
69556.0,1.44,0.31,-1.16,0.94,-0.38,0.03,-65.6,-19.66,-21.7
69621.0,1.27,0.58,-1.24,0.95,-0.37,0.03,-65.56,-19.7,-21.73
69688.0,0.64,0.67,-1.42,0.98,-0.36,0.06,-65.55,-19.72,-21.61
69755.0,0.44,0.41,-1.47,0.92,-0.34,0.06,-65.52,-19.74,-21.53
69819.0,1.02,0.54,-1.4,0.96,-0.35,0.07,-65.55,-19.71,-21.38
69886.0,0.79,0.39,-1.53,0.96,-0.35,0.05,-65.57,-19.69,-21.23
69953.0,0.65,0.15,-1.68,0.98,-0.34,0.06,-65.65,-19.61,-20.96
70019.0,0.63,0.45,-1.88,0.97,-0.35,0.04,-65.68,-19.58,-20.81
70086.0,1.4,0.22,-2.02,0.97,-0.33,0.08,-65.82,-19.45,-20.51
70151.0,1.01,0.45,-2.46,0.98,-0.33,0.01,-65.92,-19.34,-20.26
70218.0,0.66,0.74,-2.81,1.0,-0.32,0.03,-66.09,-19.17,-19.85
70286.0,0.53,0.24,-3.02,0.97,-0.29,0.06,-66.29,-18.98,-19.38
70350.0,0.53,-0.04,-3.1,1.0,-0.28,0.04,-66.56,-18.7,-18.77
70418.0,0.98,0.05,-3.34,1.02,-0.26,0.04,-66.92,-18.35,-18.03
70483.0,0.68,-0.12,-3.5,0.96,-0.25,0.03,-67.21,-18.06,-17.46
70550.0,0.47,0.15,-2.85,0.95,-0.21,0.01,-67.61,-17.65,-16.64
70618.0,0.32,0.11,-2.24,0.95,-0.18,-0.0,-68.12,-17.15,-15.62
70682.0,0.39,0.54,-1.66,0.98,-0.16,0.03,-68.67,-16.59,-14.54
70750.0,0.6,0.29,-1.37,1.01,-0.18,0.04,-69.15,-16.12,-13.72
70818.0,0.59,0.27,-1.12,0.99,-0.18,0.04,-69.58,-15.69,-13.04
70882.0,0.71,0.54,-1.08,0.98,-0.18,0.01,-69.99,-15.28,-12.45
70950.0,0.49,0.65,-1.03,1.0,-0.18,0.03,-70.37,-14.89,-11.91
71018.0,-0.02,0.02,-0.76,0.94,-0.18,-0.02,-70.65,-14.61,-11.59
71083.0,1.39,0.39,-0.65,0.96,-0.24,0.02,-70.79,-14.47,-11.72
71150.0,0.84,-2.03,-0.34,0.89,-0.22,0.11,-70.88,-14.38,-11.9
71219.0,0.44,-2.79,-0.54,1.06,-0.22,-0.07,-71.08,-14.18,-11.73
71283.0,1.02,-0.21,-2.32,0.99,-0.24,-0.05,-71.18,-14.08,-11.87
71351.0,0.3,-0.77,-0.79,0.98,-0.21,-0.12,-71.29,-13.97,-11.82
71418.0,1.98,0.97,-0.76,1.06,-0.24,-0.04,-71.27,-13.99,-11.92
71483.0,1.03,-0.16,-1.36,1.01,-0.17,-0.06,-71.5,-13.76,-11.5
71552.0,0.88,-1.34,-1.25,0.97,-0.18,-0.06,-71.67,-13.6,-11.29
71619.0,1.12,-0.4,-1.21,1.01,-0.24,-0.07,-71.62,-13.64,-11.53
71684.0,0.46,-0.25,-1.43,1.04,-0.21,-0.07,-71.75,-13.52,-11.43
71752.0,1.24,1.15,-0.71,0.98,-0.23,-0.07,-71.69,-13.57,-11.67
71820.0,0.42,0.08,-0.97,1.01,-0.22,-0.05,-71.76,-13.5,-11.67
71884.0,0.37,0.69,-1.1,1.07,-0.23,-0.05,-71.82,-13.45,-11.7
71952.0,0.95,1.26,-0.71,1.0,-0.22,-0.09,-71.82,-13.44,-11.79
72018.0,0.48,0.53,-1.04,0.95,-0.2,-0.06,-71.92,-13.34,-11.69
72084.0,0.58,0.5,-1.16,1.02,-0.23,-0.06,-71.94,-13.32,-11.75
72153.0,0.45,0.79,-1.12,0.96,-0.2,-0.08,-72.02,-13.24,-11.7
72217.0,0.78,-0.02,-1.29,0.97,-0.2,-0.08,-72.09,-13.17,-11.62
72285.0,0.44,0.1,-1.21,1.04,-0.19,-0.07,-72.26,-13.01,-11.35
72352.0,0.76,0.96,-1.12,1.05,-0.25,-0.07,-72.19,-13.08,-11.61
72417.0,0.79,0.26,-1.03,0.92,-0.21,-0.05,-72.16,-13.1,-11.75
72485.0,0.85,0.09,-1.1,0.97,-0.22,-0.07,-72.14,-13.12,-11.86
72553.0,0.59,-0.14,-1.06,0.99,-0.24,-0.06,-72.08,-13.18,-12.07
72617.0,0.63,0.51,-1.05,0.96,-0.23,-0.06,-72.05,-13.21,-12.2
72685.0,0.44,0.1,-1.29,1.0,-0.2,-0.05,-72.17,-13.1,-11.99
72753.0,0.17,0.33,-1.18,1.06,-0.19,-0.07,-72.37,-12.89,-11.61
72817.0,0.09,0.72,-0.98,1.02,-0.19,-0.08,-72.52,-12.75,-11.39
72886.0,0.63,0.05,-1.17,0.92,-0.2,-0.05,-72.52,-12.74,-11.47
72953.0,1.14,-0.15,-1.24,0.99,-0.23,-0.06,-72.43,-12.84,-11.71
73018.0,0.6,0.63,-1.12,1.03,-0.23,-0.08,-72.41,-12.85,-11.8
73085.0,1.1,0.47,-1.29,0.98,-0.24,-0.05,-72.26,-13.0,-12.16
73154.0,1.24,0.79,-1.29,1.04,-0.26,-0.07,-72.12,-13.14,-12.45
73219.0,0.58,0.48,-0.93,1.02,-0.24,-0.07,-72.08,-13.18,-12.56
73286.0,1.08,0.31,-1.08,0.94,-0.23,-0.07,-72.0,-13.27,-12.72
73354.0,0.89,0.48,-1.05,1.01,-0.23,-0.06,-71.97,-13.3,-12.76
73418.0,0.53,0.15,-0.89,0.97,-0.2,-0.06,-72.06,-13.21,-12.55
73487.0,1.24,0.66,-1.29,1.01,-0.23,-0.07,-71.99,-13.27,-12.66
73554.0,1.14,0.67,-0.6,0.98,-0.21,-0.09,-72.01,-13.25,-12.56
73619.0,1.06,0.98,-0.28,1.0,-0.23,-0.06,-71.96,-13.3,-12.65
73687.0,1.14,0.45,-0.71,1.05,-0.23,-0.05,-71.94,-13.32,-12.66
73751.0,0.82,0.93,-0.81,1.04,-0.23,-0.09,-71.97,-13.29,-12.58
73819.0,1.26,1.29,-0.76,0.97,-0.26,-0.05,-71.79,-13.47,-12.97
73886.0,-0.36,0.37,-0.27,0.85,-0.21,0.01,-71.78,-13.48,-13.06
73951.0,0.58,1.09,-0.79,1.18,-0.25,-0.08,-71.85,-13.41,-12.88
74019.0,0.9,1.86,-1.61,0.98,-0.27,-0.06,-71.66,-13.61,-13.31
74087.0,-0.76,1.45,-1.53,0.96,-0.24,-0.01,-71.66,-13.6,-13.39
74151.0,0.66,1.44,-1.76,0.96,-0.27,-0.02,-71.47,-13.79,-13.79
74219.0,0.08,0.32,-1.47,0.97,-0.23,-0.06,-71.51,-13.75,-13.68
74287.0,0.34,2.56,-0.96,0.91,-0.22,0.03,-71.51,-13.75,-13.65
74351.0,0.5,0.41,-0.65,0.99,-0.23,-0.01,-71.53,-13.73,-13.57
74419.0,0.44,0.35,-0.82,1.04,-0.23,0.04,-71.64,-13.63,-13.37
74487.0,0.03,0.38,-0.76,0.89,-0.27,-0.01,-71.42,-13.84,-13.9
74552.0,0.51,1.34,-0.7,0.99,-0.25,-0.03,-71.42,-13.84,-13.94
74619.0,0.59,0.56,-0.23,1.07,-0.24,0.09,-71.55,-13.71,-13.66
74684.0,0.59,0.12,-0.48,0.94,-0.24,-0.04,-71.56,-13.7,-13.7
74752.0,0.79,-0.05,-0.39,0.98,-0.29,-0.01,-71.4,-13.86,-14.13
74819.0,0.62,1.01,0.03,0.98,-0.27,0.01,-71.33,-13.94,-14.33
74884.0,0.82,0.54,0.35,0.93,-0.31,0.03,-71.08,-14.18,-14.93
74951.0,1.02,0.65,0.84,0.95,-0.33,0.03,-70.81,-14.45,-15.56
75019.0,1.25,0.5,1.2,0.97,-0.31,0.05,-70.67,-14.59,-15.87
75083.0,1.84,0.05,1.15,0.99,-0.37,0.04,-70.38,-14.89,-16.59
75151.0,1.56,-0.03,0.95,0.97,-0.37,-0.01,-70.04,-15.23,-17.32
75215.0,-0.11,0.36,-1.25,0.94,-0.42,-0.01,-69.42,-15.84,-18.52
75283.0,0.27,0.25,-0.91,0.91,-0.39,-0.02,-68.93,-16.34,-19.4
75351.0,0.28,1.6,-1.15,1.01,-0.4,-0.03,-68.59,-16.67,-19.87
75415.0,0.15,1.32,-1.18,0.9,-0.39,0.03,-68.13,-17.13,-20.61
75483.0,-0.11,1.36,-1.19,0.97,-0.38,0.04,-67.84,-17.42,-20.89
75550.0,0.02,1.3,-1.21,0.94,-0.35,0.05,-67.61,-17.65,-21.06
75615.0,0.22,1.02,-1.2,0.94,-0.36,0.04,-67.41,-17.85,-21.18
75682.0,0.28,1.15,-1.18,0.95,-0.38,0.04,-67.17,-18.09,-21.4
75750.0,0.49,0.79,-1.14,0.95,-0.36,0.07,-67.01,-18.25,-21.48
75814.0,0.73,0.45,-1.13,0.95,-0.37,0.07,-66.84,-18.43,-21.61
75882.0,0.59,0.22,-1.13,0.94,-0.37,0.05,-66.67,-18.59,-21.7
75947.0,0.56,0.24,-1.14,0.95,-0.37,0.04,-66.52,-18.74,-21.77
76014.0,0.64,0.31,-1.11,0.95,-0.37,0.05,-66.4,-18.86,-21.78
76083.0,0.67,0.32,-1.09,0.94,-0.37,0.04,-66.27,-18.99,-21.86
76146.0,0.62,0.36,-1.1,0.95,-0.37,0.05,-66.13,-19.13,-21.93
76215.0,0.66,0.42,-1.13,0.95,-0.37,0.04,-66.01,-19.25,-21.98
76282.0,0.63,0.4,-1.15,0.95,-0.37,0.04,-65.9,-19.36,-22.01
76347.0,0.56,0.37,-1.13,0.94,-0.37,0.05,-65.79,-19.47,-22.05
76414.0,0.59,0.67,-1.14,0.94,-0.36,0.04,-65.71,-19.55,-22.02
76479.0,0.59,0.7,-1.13,0.96,-0.37,0.05,-65.66,-19.61,-21.95
76547.0,0.56,0.34,-1.03,0.95,-0.37,0.07,-65.58,-19.68,-21.93
76614.0,0.75,0.25,-1.02,0.96,-0.37,0.06,-65.53,-19.73,-21.89
76679.0,0.85,0.0,-1.02,0.95,-0.38,0.04,-65.45,-19.81,-21.94
76746.0,0.82,0.16,-1.01,0.94,-0.38,0.04,-65.33,-19.93,-22.06
76814.0,0.75,0.26,-1.05,0.94,-0.38,0.03,-65.23,-20.03,-22.16
76878.0,0.69,0.6,-1.12,0.94,-0.39,0.05,-65.1,-20.16,-22.31
76946.0,0.52,0.59,-1.21,0.94,-0.38,0.04,-65.02,-20.25,-22.34
77015.0,0.46,0.51,-1.18,0.95,-0.36,0.05,-64.99,-20.27,-22.23
77078.0,0.66,0.29,-1.1,0.95,-0.35,0.05,-65.04,-20.22,-21.97
77147.0,0.97,0.3,-1.03,0.95,-0.39,0.05,-64.97,-20.29,-22.05
77210.0,0.79,0.05,-1.07,0.95,-0.39,0.05,-64.88,-20.39,-22.17
77279.0,1.22,0.16,-1.24,0.96,-0.4,0.03,-64.8,-20.46,-22.26
77346.0,1.34,0.56,-1.52,0.96,-0.38,0.03,-64.79,-20.47,-22.24
77410.0,1.12,0.18,-1.32,0.91,-0.33,0.06,-64.9,-20.36,-21.91
77477.0,1.22,0.57,-1.15,0.95,-0.37,0.05,-64.91,-20.35,-21.83
77546.0,0.92,0.69,-1.7,0.99,-0.4,0.03,-64.85,-20.41,-21.91
77609.0,0.6,0.76,-2.31,0.95,-0.37,0.04,-64.83,-20.43,-21.87
77677.0,0.03,0.15,-2.73,0.97,-0.34,0.04,-64.91,-20.36,-21.55
77742.0,0.59,0.85,-3.58,1.01,-0.35,0.01,-65.01,-20.25,-21.25
77809.0,0.49,1.17,-3.88,0.97,-0.28,0.04,-65.35,-19.91,-20.41
77877.0,0.52,0.46,-3.6,0.96,-0.27,0.06,-65.7,-19.56,-19.61
77941.0,0.81,-0.14,-2.99,0.93,-0.26,0.06,-66.05,-19.22,-18.88
78009.0,0.5,-0.67,-1.64,0.93,-0.23,0.05,-66.46,-18.81,-18.02
78077.0,0.34,-1.25,-1.02,0.98,-0.23,0.03,-66.85,-18.41,-17.23
78142.0,0.46,-0.14,-0.95,0.98,-0.23,0.03,-67.25,-18.01,-16.49
78210.0,1.0,0.31,-1.02,1.0,-0.25,0.02,-67.6,-17.67,-15.94
78274.0,0.98,-0.06,-1.03,0.95,-0.26,0.03,-67.81,-17.45,-15.73
78342.0,1.16,-0.11,-0.88,0.95,-0.24,0.07,-68.1,-17.16,-15.36
78409.0,1.26,-0.31,-0.21,0.97,-0.26,0.04,-68.33,-16.93,-15.14
78474.0,1.36,-1.28,0.16,0.89,-0.26,-0.05,-68.45,-16.81,-15.18
78542.0,0.33,0.33,-0.33,1.05,-0.28,0.0,-68.62,-16.65,-15.01
78610.0,1.13,-0.04,-1.34,1.0,-0.32,0.06,-68.61,-16.65,-15.32
78674.0,0.39,-1.58,-1.3,1.04,-0.3,-0.07,-68.67,-16.59,-15.35
78742.0,0.44,-0.69,-1.55,0.93,-0.29,-0.09,-68.66,-16.6,-15.56
78810.0,0.82,-0.77,-1.44,0.95,-0.28,-0.05,-68.63,-16.63,-15.66
78874.0,0.77,-0.63,-1.63,1.05,-0.26,-0.06,-68.8,-16.47,-15.31
78943.0,0.9,0.27,-2.06,1.02,-0.27,-0.06,-68.88,-16.39,-15.18
79010.0,0.88,1.26,-2.6,0.95,-0.31,-0.08,-68.71,-16.55,-15.61
79075.0,0.64,-0.31,-1.85,0.89,-0.26,-0.08,-68.7,-16.56,-15.69
79142.0,0.21,0.24,-1.25,0.98,-0.22,-0.05,-68.98,-16.28,-15.11
79210.0,1.07,0.77,-0.82,1.06,-0.29,-0.04,-68.98,-16.29,-15.15
79275.0,1.02,0.82,-0.56,0.99,-0.28,-0.07,-68.94,-16.33,-15.27
79343.0,0.24,0.12,-1.01,0.95,-0.2,-0.08,-69.23,-16.04,-14.68
79408.0,0.81,0.45,-1.18,1.02,-0.28,-0.06,-69.21,-16.05,-14.8
79475.0,0.73,0.41,-1.26,1.0,-0.25,-0.06,-69.32,-15.94,-14.61
79543.0,1.05,0.54,-1.39,0.96,-0.27,-0.06,-69.27,-15.99,-14.78
79607.0,0.56,0.6,-1.3,1.02,-0.26,-0.09,-69.36,-15.9,-14.63
79676.0,0.69,0.27,-0.92,0.97,-0.25,-0.06,-69.41,-15.85,-14.6
79744.0,0.73,-0.19,-0.95,0.94,-0.24,-0.06,-69.47,-15.79,-14.51
79808.0,1.12,0.37,-0.82,0.97,-0.26,-0.06,-69.45,-15.81,-14.6
79876.0,1.04,0.49,-0.84,0.99,-0.27,-0.08,-69.42,-15.84,-14.72
79943.0,0.74,0.23,-0.92,1.0,-0.25,-0.07,-69.5,-15.76,-14.57
80008.0,0.37,0.9,-0.97,0.98,-0.24,-0.05,-69.63,-15.64,-14.37
80076.0,0.49,0.31,-1.02,0.97,-0.26,-0.06,-69.65,-15.61,-14.4
80144.0,0.63,0.19,-1.1,1.01,-0.26,-0.06,-69.7,-15.56,-14.36
80208.0,0.73,0.44,-1.14,0.97,-0.25,-0.07,-69.71,-15.55,-14.39
80276.0,0.61,0.53,-0.83,0.97,-0.23,-0.04,-69.81,-15.45,-14.22
80344.0,0.49,-0.32,-0.82,0.94,-0.25,-0.06,-69.84,-15.43,-14.25
80408.0,0.87,0.27,-0.99,0.96,-0.26,-0.04,-69.79,-15.47,-14.39
80477.0,0.7,-0.18,-0.85,1.04,-0.26,-0.06,-69.86,-15.41,-14.3
80544.0,0.75,0.46,-0.92,0.95,-0.27,-0.06,-69.78,-15.49,-14.53
80609.0,1.1,0.7,-1.53,1.0,-0.28,-0.08,-69.71,-15.55,-14.68
80676.0,0.7,1.36,-1.56,1.09,-0.26,-0.09,-69.83,-15.44,-14.43
80745.0,0.09,1.29,-2.31,0.94,-0.25,-0.03,-69.87,-15.39,-14.42
80809.0,1.71,1.89,-3.53,1.02,-0.25,-0.1,-69.86,-15.4,-14.38
80877.0,1.12,3.02,-2.96,1.0,-0.25,-0.07,-69.9,-15.37,-14.31
80944.0,-0.66,1.11,-2.3,0.99,-0.18,-0.0,-70.28,-14.98,-13.58
81009.0,0.21,1.56,-2.21,0.95,-0.19,0.1,-70.52,-14.74,-13.15
81078.0,0.68,-0.92,-1.43,0.83,-0.22,0.04,-70.49,-14.77,-13.32
81141.0,-0.02,-0.72,-0.54,1.08,-0.15,0.02,-70.96,-14.31,-12.38
81210.0,0.63,1.05,0.11,0.93,-0.16,-0.05,-71.23,-14.03,-11.9
81277.0,1.23,0.82,-0.01,0.97,-0.29,0.08,-71.12,-14.14,-12.48
81342.0,0.36,1.62,-0.6,1.07,-0.22,0.0,-71.31,-13.96,-12.25
81410.0,0.9,1.13,-1.01,1.02,-0.22,0.02,-71.5,-13.76,-12.06
81477.0,0.58,0.31,-0.54,0.91,-0.22,0.02,-71.54,-13.73,-12.2
81542.0,0.34,0.44,0.24,0.99,-0.21,0.04,-71.67,-13.59,-12.06
81609.0,0.76,-0.92,0.58,1.03,-0.23,0.02,-71.8,-13.46,-12.0
81678.0,0.83,0.02,0.33,0.96,-0.3,-0.02,-71.56,-13.7,-12.78
81741.0,-0.13,-0.53,0.18,0.92,-0.26,-0.03,-71.41,-13.85,-13.2
81809.0,0.65,0.65,0.73,0.95,-0.28,0.01,-71.27,-13.99,-13.65
81875.0,1.09,0.78,1.23,0.94,-0.32,-0.04,-71.02,-14.25,-14.37
81941.0,0.16,1.45,1.55,0.92,-0.33,-0.0,-70.65,-14.61,-15.21
82010.0,1.21,2.99,1.04,1.09,-0.4,0.08,-70.34,-14.92,-15.97
82073.0,-0.27,0.92,-1.17,0.9,-0.36,0.11,-69.86,-15.4,-16.93
82142.0,1.17,1.13,-0.48,0.93,-0.4,0.04,-69.37,-15.89,-18.0
82209.0,0.51,1.05,-1.07,1.02,-0.41,0.04,-69.0,-16.26,-18.67
82273.0,0.5,0.85,-1.12,0.93,-0.36,0.06,-68.69,-16.58,-19.18
82341.0,0.57,0.37,-1.02,0.95,-0.37,0.06,-68.41,-16.85,-19.57
82407.0,0.97,0.71,-1.07,0.94,-0.39,0.06,-68.1,-17.16,-20.1
82473.0,0.53,0.56,-1.19,0.95,-0.38,0.04,-67.8,-17.46,-20.51
82541.0,0.35,0.63,-1.23,0.94,-0.36,0.05,-67.58,-17.68,-20.71
82606.0,0.3,0.62,-1.17,0.95,-0.35,0.06,-67.43,-17.83,-20.77
82673.0,0.27,0.98,-1.24,0.95,-0.37,0.04,-67.2,-18.07,-21.02
82741.0,0.27,0.48,-1.11,0.94,-0.36,0.08,-67.02,-18.24,-21.14
82805.0,0.69,0.62,-1.14,0.94,-0.37,0.08,-66.84,-18.42,-21.3
82873.0,0.66,0.31,-1.13,0.94,-0.37,0.06,-66.69,-18.57,-21.4
82938.0,0.65,0.47,-1.16,0.95,-0.36,0.06,-66.58,-18.68,-21.42
83005.0,0.6,0.53,-1.14,0.95,-0.36,0.05,-66.48,-18.78,-21.4
83073.0,0.62,0.56,-1.06,0.95,-0.36,0.06,-66.37,-18.89,-21.44
83138.0,0.67,0.51,-1.11,0.94,-0.36,0.06,-66.26,-19.0,-21.48
83205.0,0.64,0.42,-1.15,0.95,-0.37,0.06,-66.13,-19.13,-21.59
83272.0,0.58,0.52,-1.16,0.95,-0.37,0.06,-66.02,-19.24,-21.65
83337.0,0.42,0.32,-1.12,0.95,-0.34,0.07,-66.01,-19.25,-21.46
83404.0,0.7,0.51,-1.05,0.95,-0.36,0.08,-65.96,-19.31,-21.41
83471.0,0.63,0.21,-1.21,0.94,-0.39,0.06,-65.78,-19.48,-21.65
83536.0,0.5,0.14,-1.29,0.95,-0.37,0.06,-65.7,-19.56,-21.67
83604.0,0.85,0.24,-1.16,0.94,-0.34,0.06,-65.73,-19.54,-21.47
83670.0,1.25,0.53,-1.27,0.97,-0.37,0.05,-65.72,-19.54,-21.39
83736.0,1.36,0.13,-1.37,0.99,-0.37,0.09,-65.75,-19.52,-21.27
83804.0,0.15,-0.85,-2.15,0.94,-0.36,0.07,-65.66,-19.6,-21.3
83868.0,0.55,1.52,-2.93,0.97,-0.36,0.02,-65.66,-19.61,-21.2
83936.0,0.37,0.81,-3.35,1.01,-0.34,0.07,-65.77,-19.5,-20.81
84001.0,0.49,0.05,-3.69,0.98,-0.28,0.1,-66.04,-19.22,-20.08
84068.0,0.63,-0.79,-3.29,0.91,-0.26,0.06,-66.31,-18.95,-19.43
84135.0,0.18,-1.34,-2.23,0.93,-0.24,0.04,-66.62,-18.64,-18.69
84202.0,0.65,-0.02,-1.27,0.94,-0.25,0.01,-66.94,-18.32,-18.01
84268.0,0.24,-0.37,-1.02,1.0,-0.24,0.12,-67.29,-17.97,-17.27
84335.0,1.76,0.09,-1.4,1.02,-0.27,0.02,-67.63,-17.63,-16.71
84400.0,1.11,0.05,-1.11,0.91,-0.26,-0.01,-67.81,-17.45,-16.5
84468.0,0.73,-0.3,-0.6,0.95,-0.23,0.04,-68.13,-17.13,-15.94
84536.0,1.16,-0.86,-0.01,0.91,-0.28,-0.04,-68.2,-17.07,-16.03
84600.0,1.79,-1.26,-0.52,0.96,-0.32,0.11,-68.22,-17.04,-16.27
84668.0,0.75,-2.53,-1.38,1.07,-0.29,-0.04,-68.39,-16.88,-16.04
84737.0,0.6,-0.72,-2.08,1.0,-0.3,0.02,-68.46,-16.81,-16.03
84801.0,0.66,-1.05,-1.98,0.94,-0.29,0.0,-68.45,-16.81,-16.18
84869.0,1.45,-0.08,-2.13,1.02,-0.26,-0.04,-68.72,-16.55,-15.77
84935.0,0.64,-0.25,-2.2,1.03,-0.27,-0.04,-68.9,-16.36,-15.48
85001.0,1.04,-0.24,-2.16,0.97,-0.26,-0.11,-68.96,-16.31,-15.37
85069.0,0.58,-0.95,-1.74,0.87,-0.23,-0.12,-69.05,-16.22,-15.21
85135.0,0.68,-0.44,-0.95,1.0,-0.2,-0.08,-69.34,-15.92,-14.57
85201.0,1.03,0.99,-0.05,1.06,-0.3,-0.09,-69.3,-15.96,-14.72
85269.0,1.25,-0.03,0.3,0.92,-0.24,-0.05,-69.3,-15.96,-14.75
85336.0,0.9,-1.12,-0.37,0.96,-0.26,-0.05,-69.3,-15.96,-14.81
85402.0,0.21,0.6,-0.77,1.1,-0.25,-0.11,-69.5,-15.76,-14.45
85470.0,0.22,1.01,-1.38,1.08,-0.28,-0.08,-69.59,-15.68,-14.37
85536.0,0.61,1.05,-1.61,0.95,-0.25,-0.09,-69.62,-15.64,-14.38
85602.0,-0.04,-0.05,-1.75,0.93,-0.22,-0.07,-69.8,-15.46,-14.1
85670.0,0.41,0.31,-1.47,0.95,-0.24,-0.05,-69.88,-15.39,-14.03
85736.0,0.85,-0.12,-1.3,1.0,-0.24,-0.09,-69.94,-15.32,-13.95
85803.0,1.24,0.53,-1.18,1.02,-0.24,-0.07,-69.99,-15.27,-13.86
85870.0,0.66,0.54,-1.38,1.0,-0.18,-0.06,-70.31,-14.95,-13.21
85937.0,0.49,0.34,-1.58,0.98,-0.24,-0.11,-70.36,-14.91,-13.25
86003.0,0.86,0.59,-1.29,1.02,-0.32,-0.11,-70.14,-15.12,-13.86
86071.0,0.83,0.45,-1.21,0.95,-0.25,-0.1,-70.11,-15.16,-13.99
86137.0,0.93,0.24,-1.18,0.98,-0.25,-0.11,-70.11,-15.15,-14.02
86203.0,0.67,0.59,-1.2,1.0,-0.26,-0.1,-70.11,-15.15,-14.08
86272.0,0.5,0.42,-1.19,0.97,-0.24,-0.09,-70.16,-15.1,-14.03
86337.0,0.63,0.66,-1.19,0.99,-0.24,-0.09,-70.22,-15.04,-13.93
86404.0,0.4,0.83,-1.14,1.01,-0.22,-0.08,-70.4,-14.86,-13.6
86471.0,0.66,0.32,-1.15,0.95,-0.24,-0.09,-70.41,-14.86,-13.66
86538.0,0.72,0.17,-1.27,0.96,-0.22,-0.09,-70.52,-14.74,-13.45
86604.0,0.92,0.37,-1.16,1.02,-0.25,-0.11,-70.53,-14.73,-13.47
86672.0,0.98,0.7,-1.18,1.01,-0.24,-0.09,-70.56,-14.7,-13.45
86738.0,0.97,0.02,-1.18,0.95,-0.23,-0.09,-70.6,-14.66,-13.4
86804.0,1.66,2.87,-1.83,1.08,-0.26,-0.06,-70.56,-14.7,-13.47
86872.0,0.24,1.02,-2.63,1.23,-0.24,-0.02,-70.79,-14.47,-13.04
86936.0,0.0,-0.45,-4.09,0.81,-0.2,-0.03,-70.86,-14.4,-13.03
87005.0,-0.84,1.78,-2.24,0.88,-0.13,-0.07,-71.34,-13.92,-12.13
87070.0,0.75,1.97,-1.03,1.03,-0.15,-0.09,-71.7,-13.56,-11.4
87137.0,1.24,1.34,-1.66,1.09,-0.18,-0.01,-71.93,-13.33,-10.98
87204.0,-0.08,1.73,-1.88,0.75,-0.18,-0.08,-71.93,-13.33,-11.24
87271.0,1.18,0.92,-0.99,1.13,-0.18,-0.04,-72.15,-13.11,-10.84
87337.0,0.24,1.15,-0.63,0.95,-0.12,-0.02,-72.54,-12.72,-10.14
87405.0,0.96,1.86,-0.49,0.96,-0.25,0.01,-72.34,-12.92,-10.8
87471.0,-0.84,-0.29,0.05,1.0,-0.14,0.06,-72.76,-12.51,-10.12
87537.0,0.31,1.65,0.02,0.95,-0.17,-0.07,-72.91,-12.36,-9.99
87605.0,0.25,1.45,-0.13,1.01,-0.2,-0.02,-72.98,-12.29,-10.06
87671.0,-0.16,0.15,0.12,0.98,-0.18,0.04,-73.1,-12.16,-10.01
87737.0,0.2,0.4,0.45,0.95,-0.22,0.0,-73.04,-12.23,-10.4
87804.0,0.96,0.37,0.76,0.96,-0.24,0.01,-72.94,-12.32,-10.89
87871.0,0.89,1.66,1.32,0.96,-0.24,-0.03,-72.87,-12.39,-11.27
87937.0,0.66,1.89,1.47,1.0,-0.3,0.02,-72.63,-12.64,-12.02
88003.0,0.73,1.58,1.42,0.94,-0.3,0.08,-72.33,-12.93,-12.83
88069.0,0.24,0.95,1.14,0.94,-0.32,0.07,-71.96,-13.31,-13.72
88136.0,0.79,0.69,1.41,0.95,-0.32,0.08,-71.63,-13.63,-14.49
88203.0,1.01,1.62,0.44,1.23,-0.4,0.09,-71.39,-13.88,-15.05
88268.0,-0.21,-0.2,-1.26,0.86,-0.34,0.03,-70.86,-14.4,-16.12
88336.0,1.22,0.63,-0.17,0.88,-0.39,0.04,-70.27,-15.0,-17.4
88402.0,0.31,0.56,-0.38,0.98,-0.38,0.08,-69.85,-15.41,-18.13
88468.0,0.54,0.36,-1.21,0.88,-0.38,0.05,-69.32,-15.94,-19.11
88535.0,0.57,0.83,-1.05,0.97,-0.39,0.05,-68.93,-16.33,-19.71
88600.0,0.47,0.84,-1.2,0.92,-0.38,0.05,-68.55,-16.72,-20.27
88669.0,0.44,0.95,-1.18,0.95,-0.38,0.06,-68.22,-17.04,-20.68
88734.0,0.43,0.89,-1.14,0.94,-0.38,0.08,-67.92,-17.34,-21.02
88801.0,0.64,0.65,-1.04,0.95,-0.37,0.09,-67.69,-17.57,-21.21
88868.0,0.52,0.66,-0.95,0.95,-0.38,0.08,-67.42,-17.84,-21.49
88934.0,0.43,0.63,-1.05,0.94,-0.38,0.06,-67.15,-18.11,-21.76
89000.0,0.56,0.56,-1.0,0.94,-0.38,0.08,-66.92,-18.34,-21.96
89066.0,0.75,0.58,-0.99,0.94,-0.38,0.08,-66.71,-18.55,-22.13
89135.0,0.79,0.42,-0.98,0.93,-0.38,0.08,-66.51,-18.75,-22.28
89200.0,0.85,0.53,-0.99,0.95,-0.4,0.09,-66.28,-18.99,-22.53
89267.0,0.68,0.36,-1.05,0.92,-0.39,0.08,-66.05,-19.21,-22.75
89332.0,0.6,0.38,-1.14,0.94,-0.39,0.09,-65.84,-19.42,-22.91
89400.0,0.44,-0.52,-1.37,0.96,-0.41,0.09,-65.61,-19.65,-23.11
89466.0,0.56,0.08,-1.1,0.91,-0.38,0.06,-65.45,-19.81,-23.18
89532.0,0.73,0.63,-1.1,0.94,-0.41,0.07,-65.26,-20.0,-23.33
89601.0,0.49,0.75,-1.14,0.93,-0.38,0.06,-65.13,-20.13,-23.34
89666.0,0.24,1.22,-0.96,0.93,-0.37,0.07,-65.04,-20.23,-23.24
89733.0,0.44,1.34,-0.92,0.93,-0.38,0.09,-64.95,-20.31,-23.16
89798.0,0.68,1.03,-0.8,0.93,-0.39,0.12,-64.83,-20.43,-23.21
89866.0,1.02,0.81,-0.39,0.92,-0.36,0.12,-64.83,-20.43,-23.01
89932.0,2.31,1.15,0.57,0.98,-0.42,0.11,-64.78,-20.48,-23.08
89998.0,1.92,0.37,0.58,0.87,-0.41,0.1,-64.59,-20.67,-23.43
90064.0,0.75,-0.02,0.22,0.89,-0.4,0.08,-64.39,-20.88,-23.69
90132.0,0.53,3.69,3.09,1.01,-0.36,0.03,-64.52,-20.74,-23.14
90199.0,-0.54,3.44,6.18,1.07,-0.47,0.16,-64.29,-20.98,-23.4
90264.0,-1.31,0.38,8.05,0.79,-0.69,0.14,-62.82,-22.44,-26.46
90333.0,-0.29,2.69,9.08,0.75,-0.79,0.12,-61.17,-24.1,-29.88
90398.0,-1.24,1.62,9.56,0.7,-0.88,0.17,-59.22,-26.04,-33.71
90465.0,-1.69,0.23,10.14,0.61,-0.77,0.24,-57.45,-27.81,-36.87
90532.0,-1.11,-0.18,10.3,0.54,-0.84,0.18,-55.4,-29.86,-40.59
90599.0,-1.11,-0.13,9.64,0.43,-0.85,0.11,-53.07,-32.19,-44.8
90664.0,-0.64,-0.43,8.11,0.29,-0.83,0.07,-50.36,-34.9,-49.72
90731.0,-0.03,1.36,6.82,0.22,-0.93,0.08,-47.5,-37.76,-54.8
90799.0,-0.58,-0.4,7.03,0.19,-0.9,0.14,-44.86,-40.41,-59.09
90865.0,0.33,0.25,5.11,0.19,-0.93,0.02,-42.22,-43.05,-63.31
90931.0,-0.05,2.0,4.4,0.06,-0.97,0.11,-39.44,-45.82,-67.61
90997.0,0.4,-1.98,3.98,0.16,-0.94,0.03,-37.05,-48.21,-70.87
91065.0,0.21,-1.61,2.06,-0.06,-0.99,0.06,-34.47,-50.79,-74.48
91130.0,0.79,-0.22,1.23,0.03,-1.0,0.04,-31.99,-53.27,-77.84
91197.0,0.6,-1.59,0.87,-0.11,-0.99,0.08,-29.99,-55.27,-79.94
91265.0,0.51,-0.28,-0.11,0.0,-0.98,0.05,-27.81,-57.45,-82.46
91331.0,0.73,-0.18,-0.76,-0.07,-0.98,0.07,-25.97,-59.29,-84.19
91398.0,0.59,-0.48,-0.96,-0.09,-0.98,0.07,-24.32,-60.94,-85.45
91463.0,1.09,0.69,-1.54,-0.05,-0.98,0.07,-22.69,-62.58,-86.79
91531.0,0.95,0.97,-1.61,-0.13,-1.0,0.04,-21.35,-63.91,-87.44
91597.0,0.62,1.1,-0.79,-0.1,-1.0,0.06,-20.01,-65.25,-88.19
91664.0,0.66,0.72,-0.88,-0.06,-0.98,0.08,-18.74,-66.52,-88.82
91731.0,0.77,1.25,-1.34,-0.04,-0.99,0.07,-17.48,-67.78,-89.51
91797.0,0.71,0.66,-1.32,-0.05,-0.99,0.08,-16.34,-68.92,-90.02
91864.0,0.73,0.5,-1.22,-0.06,-0.99,0.07,-15.31,-69.96,-90.31
91931.0,0.75,0.64,-1.3,-0.06,-0.99,0.09,-14.37,-70.9,-90.48
91998.0,0.66,0.6,-1.44,-0.07,-0.99,0.09,-13.52,-71.74,-90.53
92064.0,0.75,0.37,-1.34,-0.06,-0.99,0.09,-12.71,-72.55,-90.58
92130.0,0.78,0.31,-1.31,-0.04,-0.99,0.09,-11.93,-73.34,-90.64
92197.0,0.73,0.14,-1.27,-0.04,-0.99,0.09,-11.19,-74.07,-90.67
92264.0,0.66,0.44,-1.29,-0.05,-0.99,0.06,-10.45,-74.81,-90.81
92331.0,0.73,0.53,-1.21,-0.05,-1.0,0.07,-9.79,-75.47,-90.81
92398.0,0.69,-0.03,-1.18,-0.06,-0.99,0.08,-9.23,-76.03,-90.65
92464.0,0.69,0.37,-1.24,-0.05,-0.99,0.1,-8.73,-76.54,-90.45
92530.0,0.6,0.44,-1.27,-0.04,-0.99,0.08,-8.2,-77.06,-90.35
92596.0,0.68,0.61,-1.44,-0.04,-0.99,0.09,-7.72,-77.54,-90.22
92664.0,0.71,0.69,-1.4,-0.02,-1.0,0.07,-7.2,-78.06,-90.25
92730.0,0.54,0.63,-1.26,-0.05,-0.99,0.08,-6.77,-78.49,-90.14
92796.0,0.65,0.69,-1.28,-0.03,-0.99,0.08,-6.33,-78.93,-90.08
92864.0,0.68,0.51,-1.37,-0.03,-0.99,0.09,-5.98,-79.29,-89.89
92930.0,0.78,0.95,-1.27,-0.03,-1.0,0.09,-5.65,-79.61,-89.72
92996.0,0.67,0.36,-1.18,-0.02,-0.99,0.09,-5.35,-79.91,-89.51
93062.0,0.74,0.38,-1.11,-0.02,-0.99,0.09,-5.07,-80.2,-89.31
93130.0,0.68,0.29,-1.07,-0.03,-0.99,0.09,-4.82,-80.44,-89.08
93196.0,0.81,-0.06,-1.17,-0.05,-0.99,0.09,-4.63,-80.64,-88.8
93262.0,0.94,-0.28,-1.39,-0.02,-0.98,0.08,-4.37,-80.89,-88.71
93328.0,0.88,-0.95,-1.98,-0.0,-0.97,0.08,-4.12,-81.14,-88.64
93396.0,1.21,-0.07,-3.63,0.03,-0.95,0.07,-3.92,-81.34,-88.51
93462.0,0.72,1.66,-6.48,0.0,-0.96,0.1,-3.79,-81.47,-88.22
93528.0,1.42,1.06,-6.6,0.02,-0.98,0.16,-3.95,-81.32,-87.36
93596.0,1.64,-1.03,-7.72,0.1,-0.99,0.12,-4.05,-81.21,-86.72
93662.0,1.27,1.05,-8.27,0.19,-0.94,0.15,-4.53,-80.74,-85.22
93728.0,2.68,3.1,-8.53,0.24,-1.0,0.11,-5.08,-80.18,-83.79
93794.0,2.25,0.31,-7.4,0.38,-0.93,0.15,-6.19,-79.08,-81.11
93860.0,0.96,0.23,-7.66,0.32,-0.92,0.13,-6.92,-78.34,-79.35
93928.0,1.37,0.45,-7.58,0.51,-0.8,0.16,-8.55,-76.71,-75.66
93995.0,2.33,1.12,-8.05,0.57,-0.78,0.08,-10.3,-74.96,-71.99
94060.0,1.5,-0.2,-7.78,0.53,-0.79,0.16,-11.8,-73.47,-69.05
94128.0,2.19,0.56,-8.08,0.57,-0.88,0.18,-13.16,-72.1,-66.62
94194.0,1.42,0.6,-8.7,0.68,-0.77,0.22,-14.98,-70.28,-63.17
94261.0,0.71,0.98,-8.53,0.71,-0.62,0.27,-17.2,-68.06,-58.89
94328.0,0.27,0.88,-7.82,0.69,-0.63,0.21,-19.1,-66.16,-55.56
94395.0,-1.01,-1.82,-7.13,0.75,-0.66,0.28,-20.9,-64.36,-52.45
94461.0,0.26,0.11,-6.38,0.85,-0.65,0.1,-22.83,-62.43,-49.32
94529.0,0.98,-0.65,-4.7,0.96,-0.58,0.12,-25.09,-60.17,-45.61
94596.0,1.56,-1.24,-4.08,0.87,-0.45,0.17,-27.51,-57.75,-41.71
94661.0,0.98,-0.76,-2.44,0.93,-0.57,0.08,-29.41,-55.85,-39.14
94730.0,0.6,-0.07,-2.49,0.86,-0.46,0.13,-31.41,-53.85,-36.37
94795.0,0.21,0.37,-2.12,0.9,-0.49,0.12,-33.2,-52.07,-34.13
94862.0,-0.42,-0.23,-2.29,0.87,-0.48,0.11,-34.82,-50.44,-32.27
94929.0,-0.61,-0.02,-2.42,0.9,-0.44,0.12,-36.5,-48.77,-30.28
94996.0,-0.42,-0.4,-2.18,0.92,-0.45,0.15,-38.08,-47.18,-28.53
95062.0,-0.7,-0.84,-1.8,0.91,-0.42,0.11,-39.61,-45.65,-26.92
95130.0,0.27,-0.31,-1.63,0.93,-0.45,0.08,-41.03,-44.24,-25.66
95196.0,0.26,-0.08,-1.64,0.9,-0.44,0.04,-42.27,-42.99,-24.7
95262.0,0.09,0.34,-1.69,0.91,-0.43,0.05,-43.5,-41.76,-23.79
95328.0,0.34,1.05,-1.37,0.9,-0.39,0.06,-44.77,-40.5,-22.73
95394.0,0.91,1.66,-1.14,0.94,-0.43,0.08,-45.85,-39.42,-22.01
95462.0,0.6,1.02,-1.24,0.9,-0.43,0.11,-46.79,-38.47,-21.59
95528.0,0.75,0.79,-1.21,0.94,-0.43,0.1,-47.73,-37.53,-21.08
95594.0,0.6,0.29,-1.12,0.92,-0.41,0.1,-48.64,-36.62,-20.64
95663.0,0.67,0.11,-1.1,0.92,-0.43,0.09,-49.42,-35.84,-20.43
95728.0,0.64,0.04,-1.18,0.92,-0.44,0.07,-50.11,-35.15,-20.34
95795.0,0.54,0.19,-1.28,0.9,-0.42,0.07,-50.78,-34.48,-20.26
95862.0,0.69,0.56,-1.21,0.93,-0.43,0.07,-51.43,-33.83,-20.16
95929.0,0.61,0.6,-1.21,0.92,-0.43,0.09,-52.02,-33.24,-20.11
95994.0,0.63,0.55,-1.21,0.92,-0.42,0.09,-52.59,-32.67,-20.08
96062.0,0.64,0.5,-1.18,0.92,-0.42,0.1,-53.12,-32.14,-20.06
96129.0,0.6,0.4,-1.11,0.92,-0.42,0.09,-53.64,-31.62,-20.01
96194.0,0.67,0.29,-1.07,0.92,-0.43,0.1,-54.06,-31.2,-20.14
96261.0,0.53,0.14,-1.06,0.91,-0.42,0.08,-54.5,-30.76,-20.19
96327.0,0.66,0.22,-1.1,0.92,-0.42,0.08,-54.89,-30.38,-20.28
96395.0,0.75,0.31,-1.05,0.92,-0.42,0.08,-55.34,-29.92,-20.28
96460.0,0.71,0.38,-1.04,0.92,-0.43,0.08,-55.73,-29.53,-20.39
96527.0,0.76,0.5,-1.07,0.92,-0.43,0.08,-56.1,-29.16,-20.49
96594.0,0.6,0.12,-1.08,0.92,-0.44,0.1,-56.41,-28.86,-20.69
96661.0,0.18,-0.47,-1.18,0.92,-0.42,0.09,-56.73,-28.54,-20.74
96727.0,0.76,0.09,-1.03,0.91,-0.42,0.06,-57.04,-28.22,-20.83
96795.0,0.97,0.43,-0.97,0.92,-0.43,0.06,-57.34,-27.92,-20.93
96861.0,0.75,0.66,-1.04,0.92,-0.43,0.07,-57.58,-27.69,-21.11
96927.0,0.75,0.53,-1.09,0.92,-0.44,0.08,-57.78,-27.48,-21.33
96995.0,0.63,0.41,-1.08,0.92,-0.42,0.08,-58.02,-27.24,-21.4
97060.0,0.66,0.25,-1.11,0.92,-0.43,0.07,-58.21,-27.05,-21.57
97127.0,0.54,0.31,-1.09,0.91,-0.43,0.07,-58.38,-26.88,-21.74
97195.0,0.6,0.35,-1.14,0.92,-0.43,0.06,-58.55,-26.71,-21.87
97261.0,0.63,0.47,-1.11,0.92,-0.43,0.07,-58.7,-26.56,-22.01
97327.0,0.66,0.53,-1.19,0.91,-0.43,0.06,-58.82,-26.44,-22.21
97393.0,0.56,0.79,-1.17,0.91,-0.43,0.06,-58.96,-26.31,-22.33
97459.0,0.52,0.82,-1.15,0.92,-0.43,0.09,-59.09,-26.17,-22.43
97527.0,0.68,0.49,-1.14,0.91,-0.39,0.09,-59.35,-25.91,-22.2
97593.0,1.38,0.86,-0.91,0.92,-0.42,0.09,-59.55,-25.71,-22.2
97659.0,1.22,0.66,-0.88,0.92,-0.43,0.09,-59.67,-25.59,-22.33
97727.0,1.04,0.15,-0.94,0.9,-0.42,0.09,-59.78,-25.48,-22.47
97794.0,1.11,0.7,-0.84,0.92,-0.43,0.08,-59.89,-25.37,-22.57
97859.0,1.05,0.8,-0.74,0.91,-0.45,0.1,-59.9,-25.36,-22.88
97927.0,0.63,0.83,-0.2,0.92,-0.41,0.13,-60.03,-25.23,-22.83
97993.0,1.02,2.5,1.1,0.94,-0.41,0.04,-60.21,-25.05,-22.71
98059.0,1.69,3.81,2.85,1.04,-0.45,0.1,-60.44,-24.82,-22.52
98127.0,-0.92,4.06,3.02,0.94,-0.45,0.14,-60.34,-24.92,-22.87
98193.0,0.11,1.57,4.84,0.87,-0.66,0.18,-59.52,-25.75,-24.98
98259.0,0.9,1.34,6.51,0.79,-0.67,0.2,-58.62,-26.64,-27.18
98326.0,1.55,1.24,7.17,0.74,-0.77,0.16,-57.41,-27.86,-30.06
98392.0,0.18,-0.27,7.39,0.66,-0.77,0.21,-56.0,-29.26,-33.06
98460.0,-0.47,1.5,7.73,0.63,-0.76,0.22,-54.62,-30.64,-35.78
98526.0,-1.97,1.25,7.28,0.52,-0.86,0.19,-52.65,-32.62,-39.62
98592.0,-1.09,1.27,7.4,0.54,-0.82,0.21,-51.02,-34.24,-42.52
98660.0,-1.44,0.18,7.03,0.36,-0.85,0.2,-48.81,-36.45,-46.6
98726.0,-0.45,0.31,6.55,0.33,-0.93,0.16,-46.52,-38.74,-50.79
98792.0,0.29,-0.52,6.06,0.21,-0.95,0.16,-44.04,-41.22,-55.26
98861.0,0.61,0.62,5.79,0.14,-0.96,0.12,-41.43,-43.83,-59.85
98926.0,0.03,1.27,5.07,0.2,-0.9,0.16,-39.3,-45.96,-63.08
98993.0,0.52,-0.87,5.45,0.13,-0.94,0.08,-36.9,-48.36,-66.85
99060.0,-0.08,-1.96,4.2,0.17,-0.94,0.04,-34.73,-50.53,-69.88
99126.0,0.66,-1.82,2.87,-0.04,-1.0,0.12,-32.51,-52.76,-73.05
99192.0,-0.31,-0.52,2.19,0.01,-0.96,0.07,-30.19,-55.07,-76.23
99258.0,0.27,-0.47,0.73,-0.03,-0.97,0.12,-28.26,-57.0,-78.46
99324.0,0.86,-0.64,-0.55,-0.04,-1.0,0.07,-26.34,-58.92,-80.71
99392.0,0.7,-0.07,-0.85,-0.01,-0.97,0.12,-24.7,-60.57,-82.26
99459.0,0.96,0.12,-1.61,-0.09,-0.99,0.11,-23.26,-62.0,-83.39
99524.0,0.76,-0.63,-0.65,-0.13,-1.0,0.1,-22.02,-63.24,-84.08
99593.0,0.39,0.31,-0.64,-0.06,-0.97,0.11,-20.7,-64.57,-84.98
99658.0,0.73,0.22,-1.05,-0.07,-0.99,0.1,-19.47,-65.79,-85.78
99725.0,0.42,-0.1,-0.94,-0.05,-0.98,0.11,-18.29,-66.97,-86.45
99792.0,0.63,-0.18,-0.99,-0.09,-0.99,0.1,-17.24,-68.02,-86.92
99859.0,0.57,0.28,-0.96,-0.08,-0.99,0.1,-16.27,-68.99,-87.29
99924.0,0.53,0.21,-1.13,-0.04,-0.99,0.11,-15.32,-69.94,-87.63
99993.0,0.6,0.32,-1.17,-0.06,-0.98,0.11,-14.47,-70.79,-87.84
100059.0,0.47,0.18,-1.22,-0.07,-0.98,0.1,-13.65,-71.61,-88.05
100125.0,0.6,0.44,-1.35,-0.05,-0.98,0.11,-12.91,-72.36,-88.15
100193.0,0.59,0.4,-1.25,-0.06,-0.99,0.11,-12.23,-73.03,-88.15
100259.0,0.76,0.55,-1.15,-0.07,-1.0,0.1,-11.6,-73.66,-88.18
100326.0,0.66,0.73,-1.18,-0.03,-0.98,0.09,-10.9,-74.37,-88.4
100393.0,0.83,0.55,-1.37,-0.05,-0.98,0.11,-10.34,-74.93,-88.36
100460.0,0.8,0.17,-1.23,-0.07,-1.0,0.12,-9.87,-75.4,-88.19
100526.0,0.79,0.76,-1.2,-0.05,-0.99,0.11,-9.39,-75.87,-88.09
100593.0,0.66,0.63,-1.23,-0.05,-0.99,0.1,-8.9,-76.36,-88.07
100660.0,0.72,0.63,-1.21,-0.05,-0.99,0.11,-8.47,-76.79,-87.98
100726.0,0.72,0.48,-1.21,-0.05,-0.99,0.1,-8.06,-77.2,-87.89
100794.0,0.66,0.34,-1.18,-0.05,-0.99,0.11,-7.72,-77.55,-87.7
100858.0,0.66,0.38,-1.22,-0.04,-0.98,0.1,-7.35,-77.91,-87.64
100926.0,0.68,0.51,-1.58,-0.04,-0.99,0.11,-7.02,-78.25,-87.5
100993.0,0.69,0.13,-1.33,-0.07,-0.99,0.11,-6.76,-78.5,-87.28
101059.0,0.69,0.24,-1.19,-0.04,-0.99,0.12,-6.49,-78.77,-87.11
101127.0,0.69,0.5,-1.3,-0.02,-0.99,0.11,-6.21,-79.05,-87.03
101192.0,0.69,0.25,-1.48,-0.03,-0.98,0.12,-5.99,-79.27,-86.85
101259.0,0.4,1.14,-2.07,0.03,-0.97,0.1,-5.69,-79.58,-86.88
101326.0,-0.17,3.6,-4.49,-0.13,-0.97,0.14,-5.62,-79.51,-86.02
101393.0,0.6,0.27,-3.72,0.02,-0.97,0.1,-5.89,-79.78,-86.11
101459.0,1.05,-1.05,-4.35,-0.0,-0.99,0.13,-6.04,-79.93,-85.94
101527.0,1.64,0.5,-5.07,0.08,-0.96,0.11,-6.07,-79.96,-85.6
101593.0,1.21,-1.85,-6.27,0.09,-0.97,0.17,-6.24,-79.79,-84.79
101659.0,2.35,-0.02,-6.64,0.12,-0.94,0.18,-6.56,-79.47,-83.8
101727.0,2.69,0.71,-7.22,0.21,-0.98,0.19,-7.11,-78.92,-82.37
101793.0,1.49,-0.66,-7.85,0.25,-0.92,0.21,-7.78,-78.25,-80.64
101859.0,1.18,-1.47,-9.21,0.31,-0.9,0.26,-8.73,-77.3,-78.36
101927.0,0.65,2.31,-8.63,0.36,-0.8,0.1,-9.62,-76.41,-76.29
101992.0,-0.37,0.99,-9.18,0.56,-0.81,0.21,-11.19,-74.84,-72.69
102060.0,0.89,0.45,-8.65,0.55,-0.85,0.23,-12.63,-73.4,-69.71
102127.0,1.83,0.73,-7.5,0.55,-0.9,0.15,-13.85,-72.18,-67.5
102193.0,-0.82,-2.08,-6.82,0.62,-0.73,0.11,-15.42,-70.61,-64.32
102260.0,0.73,0.38,-6.53,0.66,-0.74,0.22,-17.15,-68.88,-61.12
102328.0,0.27,-0.56,-7.02,0.73,-0.7,0.11,-18.93,-67.1,-57.87
102392.0,-1.2,-1.65,-6.56,0.77,-0.64,0.17,-20.81,-65.22,-54.42
102461.0,0.35,-1.34,-6.52,0.8,-0.6,0.23,-22.89,-63.14,-50.82
102529.0,1.3,-0.53,-6.2,0.82,-0.68,0.18,-24.67,-61.36,-48.16
102593.0,1.53,0.15,-5.09,0.89,-0.67,0.13,-26.49,-59.54,-45.5
102662.0,1.08,0.05,-4.27,0.9,-0.46,0.06,-28.83,-57.2,-41.72
102729.0,0.79,0.46,-3.18,0.96,-0.52,0.17,-30.92,-55.11,-38.59
102794.0,0.63,-0.05,-2.49,0.87,-0.48,0.13,-32.82,-53.21,-36.01
102861.0,0.51,-0.02,-2.41,0.89,-0.47,0.13,-34.63,-51.4,-33.73
102930.0,0.18,0.05,-2.53,0.89,-0.45,0.09,-36.36,-49.67,-31.62
102994.0,-0.08,0.35,-2.37,0.91,-0.48,0.14,-37.92,-48.11,-29.9
103062.0,0.37,0.21,-2.01,0.9,-0.42,0.18,-39.58,-46.45,-28.06
103130.0,0.35,-0.62,-1.6,0.92,-0.43,0.14,-41.11,-44.92,-26.47
103194.0,0.27,-0.78,-1.42,0.91,-0.45,0.1,-42.46,-43.57,-25.32
103263.0,0.41,-0.41,-1.5,0.9,-0.45,0.07,-43.69,-42.34,-24.46
103328.0,0.4,0.76,-1.6,0.9,-0.44,0.05,-44.8,-41.23,-23.72
103395.0,0.31,0.94,-1.5,0.91,-0.43,0.09,-45.9,-40.13,-22.98
103462.0,0.4,0.87,-1.43,0.93,-0.42,0.12,-46.99,-39.04,-22.21
103529.0,0.58,0.5,-1.36,0.91,-0.42,0.12,-47.98,-38.05,-21.61
103596.0,0.69,0.27,-1.24,0.92,-0.42,0.1,-48.89,-37.14,-21.16
103663.0,0.79,0.27,-1.19,0.92,-0.42,0.09,-49.72,-36.31,-20.83
103729.0,0.71,0.2,-1.24,0.91,-0.43,0.1,-50.48,-35.55,-20.58
103795.0,0.6,0.3,-1.19,0.92,-0.42,0.1,-51.24,-34.79,-20.3
103863.0,0.59,0.28,-1.11,0.92,-0.42,0.09,-51.93,-34.1,-20.14
103929.0,0.63,0.34,-1.11,0.92,-0.42,0.09,-52.55,-33.48,-20.05
103996.0,0.64,0.4,-1.15,0.92,-0.42,0.08,-53.13,-32.9,-20.02
104064.0,0.63,0.51,-1.15,0.92,-0.42,0.09,-53.68,-32.35,-20.0
104130.0,0.61,0.5,-1.11,0.92,-0.42,0.1,-54.21,-31.82,-19.95
104196.0,0.64,0.37,-1.1,0.92,-0.42,0.1,-54.78,-31.25,-19.89
104263.0,0.69,0.32,-1.08,0.92,-0.42,0.1,-55.29,-30.74,-19.9
104328.0,0.69,0.38,-1.08,0.91,-0.43,0.09,-55.74,-30.29,-19.99
104396.0,0.66,0.43,-1.1,0.92,-0.43,0.09,-56.17,-29.86,-20.09
104464.0,0.63,0.44,-1.1,0.92,-0.42,0.09,-56.57,-29.46,-20.16
104528.0,0.68,0.42,-1.05,0.93,-0.42,0.1,-56.98,-29.05,-20.17
104596.0,0.78,0.34,-1.04,0.92,-0.42,0.1,-57.35,-28.68,-20.27
104665.0,0.7,0.31,-1.05,0.92,-0.43,0.1,-57.65,-28.38,-20.44
104729.0,0.64,0.37,-1.12,0.91,-0.43,0.1,-57.93,-28.1,-20.61
104797.0,0.66,0.45,-1.14,0.92,-0.42,0.09,-58.21,-27.82,-20.74
104864.0,0.72,0.61,-1.1,0.92,-0.43,0.08,-58.45,-27.58,-20.92
104929.0,0.75,0.88,-1.15,0.91,-0.43,0.09,-58.68,-27.36,-21.09
104997.0,0.45,0.76,-1.12,0.92,-0.43,0.11,-58.89,-27.14,-21.23
105065.0,0.49,0.76,-1.12,0.91,-0.42,0.11,-59.11,-26.92,-21.32
105129.0,0.57,0.76,-1.14,0.92,-0.41,0.11,-59.35,-26.68,-21.32
105197.0,0.53,0.37,-1.09,0.91,-0.44,0.13,-59.47,-26.57,-21.61
105264.0,0.34,-0.46,-0.77,0.89,-0.39,0.11,-59.7,-26.33,-21.55
105330.0,1.15,0.73,-0.66,0.94,-0.43,0.07,-59.89,-26.14,-21.66
105398.0,1.29,0.68,-0.65,0.93,-0.44,0.12,-60.02,-26.01,-21.88
105463.0,1.89,-0.02,-0.51,0.87,-0.47,0.12,-59.99,-26.04,-22.48
105530.0,0.02,2.27,1.49,0.92,-0.21,0.06,-60.9,-25.13,-20.67
105597.0,1.16,1.31,4.95,0.94,-0.43,0.11,-61.03,-25.0,-20.9
105664.0,-0.2,2.56,4.7,0.95,-0.63,0.17,-60.44,-25.59,-22.62
105731.0,1.73,1.21,6.92,0.85,-0.7,0.18,-59.62,-26.41,-24.95
105798.0,0.92,2.4,8.24,0.76,-0.8,0.17,-58.33,-27.7,-28.15
105863.0,0.24,1.53,9.03,0.68,-0.82,0.22,-56.87,-29.16,-31.47
105930.0,-1.01,0.19,9.6,0.55,-0.83,0.23,-55.03,-31.0,-35.35
105999.0,-1.17,3.15,10.1,0.5,-0.87,0.21,-53.06,-32.97,-39.33
106063.0,-2.31,1.6,10.02,0.43,-0.89,0.19,-50.88,-35.15,-43.47
106131.0,-1.96,1.94,9.65,0.28,-0.86,0.17,-48.37,-37.66,-48.18
106199.0,-2.01,0.76,8.76,0.22,-0.87,0.18,-45.85,-40.18,-52.72
106263.0,-0.82,-0.53,7.28,0.16,-0.9,0.22,-43.5,-42.53,-56.73
106331.0,1.15,-2.68,5.55,0.06,-0.92,0.07,-40.65,-45.38,-61.88
106399.0,-0.02,0.21,3.76,0.13,-0.93,0.06,-38.15,-47.88,-65.91
106464.0,1.11,-0.55,1.85,0.0,-0.99,0.11,-35.72,-50.31,-69.71
106531.0,-0.11,-1.97,1.63,-0.01,-0.97,0.08,-33.27,-52.76,-73.25
106599.0,0.77,0.44,1.12,-0.02,-0.98,0.1,-31.13,-54.9,-76.11
106663.0,0.85,0.04,-0.59,-0.01,-0.98,0.12,-29.22,-56.81,-78.35
106732.0,0.76,1.53,-1.23,-0.03,-0.98,0.12,-27.44,-58.59,-80.21
106800.0,0.81,0.73,-1.31,-0.09,-1.0,0.12,-25.89,-60.14,-81.59
106864.0,0.51,0.08,-0.69,-0.07,-0.99,0.11,-24.36,-61.67,-82.93
106932.0,0.59,0.86,-0.93,-0.06,-0.98,0.12,-22.97,-63.06,-83.91
107000.0,0.34,1.23,-1.05,-0.04,-0.99,0.12,-21.6,-64.43,-84.94
107065.0,0.36,-0.33,-0.92,-0.07,-0.98,0.13,-20.42,-65.61,-85.57
107132.0,0.56,-0.37,-0.95,-0.06,-0.99,0.1,-19.22,-66.81,-86.27
107199.0,0.61,-0.25,-0.85,-0.08,-0.99,0.1,-18.16,-67.87,-86.75
107265.0,0.56,-0.03,-0.95,-0.08,-0.99,0.12,-17.22,-68.81,-87.01
107333.0,0.56,0.87,-1.13,-0.09,-0.99,0.11,-16.33,-69.7,-87.23
107399.0,0.68,1.11,-1.28,-0.05,-0.99,0.11,-15.46,-70.57,-87.53
107465.0,0.61,0.88,-1.28,-0.07,-0.99,0.1,-14.64,-71.39,-87.73
107533.0,0.61,0.44,-1.18,-0.06,-0.99,0.1,-13.84,-72.19,-87.95
107597.0,0.63,0.4,-1.09,-0.05,-0.99,0.11,-13.11,-72.92,-88.1
107666.0,0.51,0.27,-1.15,-0.05,-0.98,0.12,-12.48,-73.55,-88.05
107734.0,0.6,0.33,-1.17,-0.05,-0.99,0.12,-11.89,-74.14,-88.02
107798.0,0.59,0.07,-1.05,-0.07,-0.99,0.12,-11.38,-74.65,-87.86
107866.0,0.55,0.05,-1.06,-0.06,-0.99,0.1,-10.81,-75.22,-87.9
107934.0,0.69,0.6,-1.2,-0.08,-0.99,0.1,-10.32,-75.72,-87.85
107999.0,0.73,0.37,-1.15,-0.06,-0.99,0.11,-9.88,-76.15,-87.74
108066.0,0.75,0.47,-1.14,-0.05,-0.99,0.11,-9.44,-76.59,-87.64
108134.0,0.71,0.32,-1.15,-0.06,-0.99,0.11,-9.04,-76.99,-87.55
108198.0,0.66,-0.11,-1.12,-0.06,-0.99,0.1,-8.65,-77.38,-87.49
108267.0,0.66,-0.61,-1.28,-0.06,-0.98,0.09,-8.26,-77.77,-87.44
108335.0,0.64,-0.08,-1.55,-0.07,-0.98,0.11,-8.0,-78.03,-87.18
108399.0,0.7,0.45,-1.83,-0.06,-0.98,0.11,-7.73,-78.3,-86.99
108467.0,0.6,0.4,-2.42,0.02,-0.98,0.12,-7.45,-78.58,-86.84
108534.0,0.43,1.38,-3.56,-0.13,-0.98,0.13,-7.42,-78.61,-86.16
108599.0,0.85,2.94,-3.77,-0.03,-0.99,0.09,-7.07,-78.96,-86.34
108667.0,0.81,2.3,-3.68,0.04,-1.0,0.1,-6.77,-79.26,-86.38
108735.0,0.89,1.66,-3.53,0.05,-0.98,0.11,-6.58,-79.45,-86.24
108800.0,1.27,-0.15,-3.21,0.09,-1.0,0.12,-6.51,-79.52,-85.88
108867.0,0.76,-0.37,-3.38,0.06,-0.98,0.11,-6.35,-79.68,-85.71
108935.0,0.63,-0.3,-3.76,0.13,-0.96,0.12,-6.39,-79.64,-85.11
108999.0,1.27,-1.56,-3.99,0.13,-0.96,0.1,-6.42,-79.61,-84.67
109067.0,1.02,-1.69,-4.66,0.18,-0.96,0.12,-6.65,-79.38,-83.74
109131.0,1.47,-0.56,-5.13,0.22,-0.95,0.17,-7.13,-78.9,-82.36
109199.0,2.8,0.06,-5.72,0.16,-0.94,0.17,-7.52,-78.51,-81.41
109266.0,1.22,-1.8,-6.14,0.3,-0.95,0.05,-8.03,-78.0,-80.09
109331.0,1.05,1.73,-6.9,0.33,-0.9,0.16,-8.81,-77.22,-78.22
109400.0,1.41,2.73,-7.95,0.43,-0.89,0.21,-9.98,-76.05,-75.59
109467.0,1.66,1.22,-8.02,0.47,-0.82,0.2,-11.32,-74.71,-72.72
109532.0,1.82,1.05,-8.9,0.42,-0.88,0.15,-12.23,-73.8,-71.05
109599.0,-0.24,-1.31,-8.88,0.55,-0.82,0.18,-13.56,-72.48,-68.31
109668.0,0.36,0.21,-8.51,0.56,-0.7,0.29,-15.3,-70.73,-64.77
109732.0,0.73,-0.73,-8.03,0.7,-0.73,0.25,-17.19,-68.84,-61.13
109800.0,0.89,-0.11,-8.44,0.7,-0.66,0.18,-19.11,-66.92,-57.63
109868.0,2.21,1.25,-7.84,0.82,-0.71,0.14,-21.09,-64.94,-54.25
109933.0,0.4,-0.49,-6.91,0.81,-0.61,0.2,-23.12,-62.91,-50.74
110001.0,1.48,-0.76,-6.66,0.82,-0.63,0.19,-25.05,-60.98,-47.73
110068.0,0.88,-1.3,-4.6,0.95,-0.65,0.19,-27.01,-59.02,-44.69
110134.0,1.07,-0.4,-4.0,0.91,-0.44,0.15,-29.42,-56.61,-40.73
110201.0,1.05,-0.9,-2.95,0.88,-0.44,0.13,-31.6,-54.43,-37.51
110269.0,0.9,0.18,-2.35,0.93,-0.48,0.14,-33.58,-52.45,-34.8
110333.0,-0.28,0.02,-2.26,0.89,-0.43,0.12,-35.44,-50.59,-32.33
110402.0,-0.21,0.79,-2.53,0.92,-0.49,0.1,-37.02,-49.01,-30.65
110470.0,-0.79,0.48,-2.37,0.9,-0.46,0.16,-38.52,-47.51,-29.05
110534.0,-0.37,0.58,-1.92,0.92,-0.37,0.22,-40.32,-45.71,-26.77
110603.0,0.63,-0.09,-1.47,0.95,-0.4,0.19,-41.99,-44.04,-24.99
110670.0,0.73,-0.84,-1.15,0.93,-0.44,0.13,-43.38,-42.65,-23.84
110735.0,0.54,-0.57,-1.13,0.93,-0.43,0.11,-44.66,-41.37,-22.88
110802.0,0.66,-0.27,-1.28,0.91,-0.43,0.1,-45.82,-40.21,-22.25
110871.0,0.92,0.47,-1.24,0.91,-0.42,0.09,-46.95,-39.08,-21.57
110936.0,0.69,0.48,-1.21,0.92,-0.42,0.11,-48.01,-38.02,-20.98
111003.0,0.61,0.53,-1.3,0.92,-0.42,0.11,-49.02,-37.01,-20.51
111071.0,0.66,0.43,-1.21,0.92,-0.41,0.12,-49.98,-36.05,-20.04
111136.0,0.7,0.33,-1.24,0.92,-0.42,0.11,-50.83,-35.2,-19.76
111204.0,0.6,0.08,-1.22,0.93,-0.41,0.12,-51.66,-34.37,-19.51
111271.0,0.52,0.15,-1.08,0.92,-0.41,0.1,-52.44,-33.59,-19.26
111336.0,0.53,0.02,-1.09,0.93,-0.42,0.11,-53.15,-32.89,-19.12
111405.0,0.79,0.15,-1.06,0.91,-0.42,0.1,-53.79,-32.24,-19.12
111468.0,0.79,0.34,-1.08,0.92,-0.42,0.09,-54.38,-31.65,-19.13
111537.0,0.69,0.56,-1.16,0.92,-0.42,0.09,-54.93,-31.1,-19.2
111604.0,0.6,0.5,-1.15,0.93,-0.41,0.11,-55.48,-30.55,-19.15
111669.0,0.69,0.24,-1.09,0.93,-0.41,0.11,-55.99,-30.04,-19.17
111736.0,0.76,0.02,-1.04,0.92,-0.42,0.09,-56.44,-29.59,-19.28
111805.0,0.76,0.39,-1.06,0.91,-0.42,0.09,-56.83,-29.2,-19.46
111869.0,0.56,0.52,-1.11,0.92,-0.42,0.09,-57.2,-28.83,-19.61
111937.0,0.62,0.63,-1.13,0.92,-0.42,0.11,-57.56,-28.47,-19.75
112006.0,0.63,0.47,-1.16,0.93,-0.42,0.11,-57.89,-28.14,-19.87
112070.0,0.58,0.39,-1.15,0.91,-0.42,0.1,-58.19,-27.84,-20.02
112138.0,0.6,0.52,-1.12,0.92,-0.42,0.1,-58.48,-27.55,-20.18
112205.0,0.48,0.65,-1.14,0.92,-0.41,0.09,-58.77,-27.26,-20.25
112270.0,0.56,0.77,-1.1,0.92,-0.42,0.12,-59.01,-27.02,-20.39
112337.0,0.55,0.4,-1.06,0.92,-0.42,0.12,-59.25,-26.78,-20.54
112405.0,0.6,0.34,-0.96,0.92,-0.41,0.11,-59.47,-26.56,-20.65
112470.0,1.07,0.63,-0.82,0.92,-0.42,0.1,-59.71,-26.32,-20.75
112537.0,0.58,0.11,-0.52,0.92,-0.39,0.1,-60.0,-26.03,-20.65
112606.0,1.6,0.44,-0.18,0.89,-0.39,0.11,-60.27,-25.76,-20.65
112670.0,-0.22,2.45,1.99,0.96,-0.34,0.29,-60.76,-25.27,-19.95
112738.0,4.81,0.92,4.42,1.04,-0.46,0.18,-61.16,-24.87,-19.94
112802.0,0.17,5.26,3.53,0.99,-0.67,0.06,-60.55,-25.49,-21.86
112870.0,0.6,2.27,6.68,0.84,-0.79,0.16,-59.36,-26.67,-25.0
112939.0,-0.83,2.71,8.08,0.7,-0.78,0.21,-57.9,-28.14,-28.45
113003.0,-1.73,2.42,9.14,0.69,-0.75,0.22,-56.54,-29.49,-31.36
113071.0,-1.45,0.73,9.8,0.6,-0.78,0.21,-54.96,-31.07,-34.63
113138.0,-0.76,0.18,10.35,0.56,-0.83,0.23,-53.32,-32.71,-37.95
113203.0,-1.13,-1.85,10.39,0.47,-0.81,0.17,-51.46,-34.57,-41.57
113271.0,0.55,-0.44,8.92,0.18,-0.9,0.06,-48.47,-37.56,-47.76
113339.0,-0.86,1.2,8.57,0.24,-0.92,0.14,-45.93,-40.11,-52.48
113403.0,0.04,0.56,7.03,0.06,-0.98,0.21,-43.32,-42.71,-57.2
113471.0,-0.63,-0.24,7.23,0.23,-0.84,0.25,-41.5,-44.53,-59.73
113540.0,0.71,-2.86,5.52,0.07,-0.94,0.04,-38.7,-47.33,-64.67
113604.0,0.55,-0.75,2.1,0.04,-0.95,0.18,-36.53,-49.5,-67.89
113672.0,0.5,-1.02,2.04,-0.05,-0.96,0.11,-34.22,-51.82,-71.27
113739.0,0.32,-0.26,0.31,-0.11,-0.97,0.17,-32.37,-53.66,-73.49
113804.0,0.53,0.53,-0.4,-0.01,-0.98,0.07,-30.17,-55.86,-76.56
113872.0,0.49,0.35,-0.78,-0.1,-0.98,0.12,-28.44,-57.59,-78.33
113940.0,0.45,1.54,-0.93,-0.12,-0.98,0.1,-26.81,-59.22,-79.95
114004.0,0.64,1.19,-0.89,-0.1,-0.98,0.11,-25.28,-60.75,-81.36
114072.0,0.53,0.71,-0.96,-0.07,-0.97,0.14,-23.9,-62.13,-82.38
114141.0,0.6,-0.11,-0.97,-0.07,-0.99,0.11,-22.53,-63.5,-83.49
114205.0,0.53,-0.08,-0.92,-0.05,-0.98,0.14,-21.3,-64.73,-84.3
114273.0,0.65,-0.26,-0.97,-0.09,-0.99,0.12,-20.18,-65.85,-84.87
114340.0,0.61,0.0,-1.06,-0.11,-0.98,0.12,-19.18,-66.85,-85.26
114405.0,0.75,0.95,-1.24,-0.07,-0.99,0.11,-18.15,-67.88,-85.81
114473.0,0.84,0.95,-1.31,-0.07,-0.99,0.12,-17.22,-68.81,-86.15
114541.0,0.69,0.44,-1.21,-0.07,-0.98,0.13,-16.37,-69.66,-86.41
114606.0,0.73,0.5,-1.16,-0.07,-0.99,0.14,-15.63,-70.4,-86.48
114673.0,0.56,0.08,-1.07,-0.07,-0.98,0.14,-14.91,-71.12,-86.51
114742.0,0.56,0.33,-1.05,-0.08,-0.99,0.12,-14.18,-71.85,-86.68
114806.0,0.69,0.46,-1.11,-0.08,-0.99,0.12,-13.54,-72.49,-86.75
114874.0,0.6,0.61,-1.11,-0.07,-0.99,0.12,-12.91,-73.12,-86.79
114942.0,0.59,0.53,-1.14,-0.08,-0.99,0.13,-12.37,-73.66,-86.73
115007.0,0.66,0.53,-1.13,-0.07,-0.99,0.13,-11.85,-74.18,-86.68
115075.0,0.82,0.66,-1.13,-0.1,-0.99,0.13,-11.43,-74.6,-86.45
115141.0,0.69,0.79,-1.18,-0.07,-0.98,0.13,-10.99,-75.04,-86.37
115207.0,0.7,0.75,-1.19,-0.08,-0.98,0.12,-10.58,-75.45,-86.26
115275.0,0.73,0.96,-1.4,-0.06,-0.98,0.13,-10.17,-75.86,-86.2
115340.0,0.84,1.41,-1.95,-0.07,-0.99,0.14,-9.85,-76.19,-86.02
115407.0,0.9,-0.02,-1.37,-0.1,-0.99,0.12,-9.55,-76.48,-85.79
115475.0,0.51,-0.16,-1.19,-0.04,-0.97,0.13,-9.21,-76.82,-85.74
115539.0,0.75,-0.21,-1.57,-0.06,-0.99,0.13,-8.9,-77.13,-85.67
115608.0,0.63,-0.34,-1.68,-0.07,-0.98,0.13,-8.63,-77.4,-85.5
115676.0,0.75,-0.03,-2.05,-0.04,-0.98,0.13,-8.34,-77.69,-85.47
115740.0,0.73,0.49,-2.52,-0.04,-0.98,0.11,-8.01,-78.02,-85.57
115808.0,0.7,0.52,-3.08,-0.01,-0.97,0.1,-7.63,-78.41,-85.79
115875.0,0.4,-0.7,-3.31,0.01,-0.97,0.14,-7.4,-78.63,-85.64
115940.0,1.51,-0.73,-4.37,-0.01,-0.97,0.12,-7.2,-78.83,-85.58
116007.0,0.9,1.18,-5.89,0.04,-0.95,0.12,-7.01,-79.02,-85.44
116076.0,1.85,2.08,-5.66,-0.01,-1.0,0.13,-6.89,-79.14,-85.31
116141.0,1.24,-0.45,-5.48,0.12,-0.99,0.11,-6.84,-79.19,-84.95
116208.0,0.53,1.08,-5.99,0.19,-0.92,0.2,-7.28,-78.75,-83.42
116276.0,2.06,2.58,-6.08,0.34,-0.91,0.25,-8.36,-77.67,-80.65
116340.0,2.73,-0.69,-6.24,0.35,-0.98,0.2,-9.23,-76.8,-78.62
116408.0,2.28,-0.15,-6.05,0.3,-0.95,0.2,-9.89,-76.15,-77.17
116474.0,1.2,-0.15,-6.02,0.35,-0.89,0.12,-10.56,-75.47,-75.68
116541.0,0.91,0.47,-6.49,0.45,-0.84,0.12,-11.62,-74.41,-73.33
116609.0,2.18,2.22,-6.98,0.5,-0.86,0.3,-13.05,-72.98,-70.38
116675.0,0.74,-1.45,-7.79,0.44,-0.78,0.26,-14.24,-71.79,-68.02
116741.0,-0.5,0.56,-7.85,0.68,-0.74,0.19,-15.98,-70.05,-64.37
116809.0,0.51,0.38,-7.69,0.57,-0.81,0.23,-17.23,-68.8,-62.18
116876.0,1.79,2.48,-8.15,0.72,-0.83,0.18,-18.81,-67.22,-59.43
116941.0,-0.69,2.18,-7.5,0.78,-0.69,0.13,-20.6,-65.43,-56.09
117010.0,-0.15,1.08,-7.24,0.78,-0.67,0.22,-22.39,-63.64,-52.96
117075.0,0.7,-0.98,-7.26,0.79,-0.63,0.2,-24.26,-61.77,-49.85
117142.0,0.8,-1.21,-6.17,0.86,-0.66,0.22,-26.07,-59.96,-47.02
117211.0,0.99,-0.37,-5.44,0.89,-0.64,0.14,-27.85,-58.18,-44.4
117276.0,0.67,-0.85,-5.31,0.92,-0.56,0.13,-29.77,-56.26,-41.48
117343.0,0.44,-1.14,-4.09,0.96,-0.43,0.14,-32.06,-53.97,-37.79
117411.0,0.15,-0.4,-2.43,0.94,-0.43,0.19,-34.17,-51.86,-34.65
117477.0,0.63,-1.28,-1.76,0.91,-0.43,0.15,-36.09,-49.94,-32.09
117543.0,1.07,-1.08,-1.88,0.9,-0.46,0.1,-37.74,-48.29,-30.27
117611.0,-0.02,-0.92,-1.93,0.91,-0.45,0.06,-39.27,-46.76,-28.66
117678.0,-0.25,-0.09,-1.73,0.91,-0.44,0.08,-40.73,-45.3,-27.16
117744.0,0.12,0.27,-1.58,0.92,-0.42,0.08,-42.19,-43.84,-25.72
117812.0,0.4,0.6,-1.6,0.92,-0.43,0.06,-43.49,-42.54,-24.58
117876.0,0.45,1.08,-1.53,0.92,-0.43,0.06,-44.68,-41.35,-23.67
117944.0,0.32,0.98,-1.66,0.92,-0.43,0.1,-45.81,-40.22,-22.92
118012.0,0.5,0.8,-1.65,0.93,-0.42,0.11,-46.92,-39.12,-22.1
118077.0,0.57,0.47,-1.51,0.94,-0.41,0.11,-47.97,-38.06,-21.35
118145.0,0.61,0.07,-1.37,0.92,-0.4,0.11,-48.96,-37.07,-20.78
118212.0,0.64,0.23,-1.44,0.93,-0.41,0.09,-49.86,-36.17,-20.31
118277.0,0.69,0.48,-1.24,0.93,-0.4,0.08,-50.71,-35.32,-19.9
118345.0,0.56,0.38,-1.16,0.92,-0.4,0.07,-51.51,-34.52,-19.62
118413.0,0.59,0.5,-1.11,0.93,-0.41,0.09,-52.24,-33.79,-19.37
118477.0,0.6,0.4,-1.1,0.93,-0.4,0.09,-52.93,-33.1,-19.19
118546.0,0.54,0.24,-1.15,0.93,-0.4,0.08,-53.59,-32.44,-19.07
118614.0,0.46,0.44,-1.05,0.93,-0.41,0.09,-54.17,-31.86,-19.02
118678.0,0.57,0.47,-1.1,0.92,-0.4,0.09,-54.72,-31.31,-18.97
118746.0,0.76,0.51,-1.1,0.93,-0.41,0.09,-55.22,-30.81,-19.01
118814.0,0.61,0.27,-1.1,0.91,-0.41,0.1,-55.67,-30.36,-19.1
118879.0,0.63,0.42,-1.1,0.93,-0.4,0.09,-56.12,-29.91,-19.11
118946.0,0.63,0.45,-1.09,0.92,-0.41,0.08,-56.51,-29.52,-19.24
119015.0,3.26,-2.82,-1.61,0.92,-0.56,0.19,-56.64,-29.39,-20.24
119079.0,0.95,0.26,-1.09,0.92,-0.4,0.13,-57.11,-28.92,-20.13
119147.0,0.58,0.18,-1.04,0.93,-0.42,0.09,-57.48,-28.55,-20.19
119215.0,0.69,0.5,-1.11,0.92,-0.41,0.09,-57.86,-28.17,-20.16
119279.0,0.64,0.45,-1.12,0.92,-0.41,0.08,-58.22,-27.81,-20.16
119348.0,0.66,0.5,-1.13,0.92,-0.41,0.09,-58.55,-27.48,-20.21
119415.0,0.66,0.52,-1.12,0.92,-0.4,0.09,-58.86,-27.17,-20.22
119480.0,0.69,0.38,-1.09,0.92,-0.41,0.1,-59.15,-26.88,-20.27
119548.0,0.67,0.32,-1.1,0.93,-0.41,0.09,-59.42,-26.61,-20.34
119616.0,0.66,0.34,-1.09,0.93,-0.41,0.08,-59.65,-26.38,-20.45
119681.0,0.6,0.37,-1.09,0.93,-0.41,0.08,-59.87,-26.16,-20.56
119748.0,0.68,0.47,-1.1,0.93,-0.41,0.09,-60.07,-25.96,-20.69
119817.0,0.64,0.42,-1.11,0.93,-0.41,0.09,-60.26,-25.77,-20.78
119881.0,0.63,0.38,-1.14,0.93,-0.41,0.08,-60.44,-25.59,-20.88
119949.0,0.63,0.35,-1.11,0.93,-0.41,0.1,-60.61,-25.42,-20.97
120017.0,0.63,0.4,-1.1,0.92,-0.41,0.09,-60.75,-25.29,-21.12
120082.0,0.59,0.39,-1.08,0.92,-0.41,0.09,-60.87,-25.16,-21.25
120150.0,0.67,0.4,-1.11,0.93,-0.41,0.09,-61.01,-25.02,-21.36
120217.0,0.69,0.39,-1.11,0.93,-0.41,0.09,-61.14,-24.9,-21.45
120282.0,0.66,0.32,-1.1,0.93,-0.41,0.09,-61.25,-24.79,-21.55
120350.0,0.68,0.36,-1.08,0.93,-0.41,0.09,-61.34,-24.69,-21.67
120418.0,0.68,0.37,-1.1,0.92,-0.42,0.09,-61.42,-24.61,-21.82
120482.0,0.65,0.4,-1.15,0.92,-0.41,0.08,-61.5,-24.53,-21.93
120551.0,0.63,0.46,-1.13,0.93,-0.41,0.09,-61.58,-24.45,-22.02
120619.0,0.6,0.35,-1.18,0.92,-0.41,0.09,-61.67,-24.36,-22.08
120683.0,0.57,0.4,-1.16,0.92,-0.41,0.08,-61.74,-24.29,-22.15
120751.0,0.6,0.51,-1.14,0.92,-0.41,0.09,-61.81,-24.22,-22.22
120819.0,0.64,0.35,-1.14,0.93,-0.4,0.09,-61.92,-24.11,-22.2
120884.0,0.69,0.37,-1.09,0.93,-0.41,0.09,-61.97,-24.06,-22.29
120951.0,0.68,0.42,-1.08,0.92,-0.41,0.08,-62.03,-24.0,-22.35
121019.0,0.74,0.63,-1.17,0.92,-0.42,0.08,-62.06,-23.97,-22.48
121083.0,0.34,0.94,-1.28,0.92,-0.41,0.06,-62.1,-23.94,-22.55
121152.0,0.35,0.69,-1.26,0.93,-0.41,0.08,-62.13,-23.9,-22.62
121218.0,0.65,0.74,-1.37,0.94,-0.4,0.1,-62.21,-23.82,-22.57
121284.0,0.67,0.46,-1.67,0.95,-0.42,0.14,-62.28,-23.75,-22.57
121352.0,0.5,-0.35,-2.4,0.99,-0.44,0.11,-62.3,-23.73,-22.65
121418.0,0.02,-0.53,-2.59,0.9,-0.38,0.08,-62.36,-23.67,-22.6
121485.0,-0.08,-0.49,-1.8,0.93,-0.32,0.06,-62.69,-23.34,-21.91
121552.0,4.75,-1.27,-1.63,0.97,-0.54,0.23,-62.62,-23.41,-22.61
121619.0,0.73,0.66,-1.56,0.91,-0.37,0.0,-62.74,-23.3,-22.46
121684.0,0.73,0.23,-0.44,0.89,-0.37,0.03,-62.84,-23.19,-22.33
121752.0,0.99,1.01,0.05,0.98,-0.39,0.08,-63.02,-23.01,-22.07
121819.0,0.38,0.53,-0.87,0.94,-0.4,0.07,-63.06,-22.97,-22.08
121885.0,0.73,1.03,-0.53,0.89,-0.38,0.06,-63.1,-22.93,-22.12
121953.0,1.02,1.08,-0.11,0.99,-0.39,0.09,-63.26,-22.77,-21.9
122018.0,0.17,-0.11,-1.04,0.89,-0.39,0.1,-63.21,-22.82,-22.1
122085.0,1.36,0.76,-0.89,0.97,-0.42,0.09,-63.26,-22.77,-22.17
122152.0,0.78,-0.24,-1.05,0.92,-0.4,0.09,-63.25,-22.78,-22.29
122219.0,0.73,-0.18,-1.0,0.94,-0.4,0.07,-63.27,-22.76,-22.36
122286.0,0.85,0.18,-1.0,0.92,-0.41,0.06,-63.25,-22.78,-22.49
122353.0,0.76,0.35,-0.99,0.93,-0.42,0.06,-63.21,-22.82,-22.68
122418.0,0.67,0.59,-1.06,0.93,-0.41,0.07,-63.18,-22.85,-22.78
122485.0,0.54,0.64,-1.15,0.92,-0.41,0.07,-63.14,-22.9,-22.93
122552.0,0.54,0.76,-1.18,0.93,-0.42,0.08,-63.08,-22.95,-23.09
122617.0,0.54,0.66,-1.2,0.92,-0.4,0.08,-63.08,-22.95,-23.11
122686.0,0.56,0.47,-1.16,0.93,-0.39,0.09,-63.14,-22.89,-22.99
122752.0,0.73,0.31,-1.07,0.93,-0.41,0.09,-63.13,-22.9,-23.05
122818.0,0.76,0.26,-1.08,0.93,-0.4,0.07,-63.13,-22.9,-23.08
122886.0,0.77,0.26,-1.11,0.92,-0.41,0.06,-63.09,-22.94,-23.21
122952.0,0.75,1.03,-1.29,0.93,-0.43,0.06,-63.0,-23.03,-23.45
123019.0,0.21,1.13,-1.44,0.92,-0.42,0.06,-62.9,-23.13,-23.66
123086.0,-0.11,1.19,-1.63,0.93,-0.4,0.1,-62.88,-23.15,-23.61
123153.0,0.05,0.91,-1.66,0.95,-0.39,0.12,-62.95,-23.09,-23.41
123218.0,0.34,0.34,-1.78,0.95,-0.39,0.12,-63.05,-22.99,-23.16
123286.0,0.57,0.05,-1.96,0.95,-0.38,0.11,-63.16,-22.87,-22.91
123353.0,0.69,0.0,-2.05,0.94,-0.38,0.08,-63.3,-22.74,-22.65
123419.0,0.77,0.32,-2.06,0.95,-0.37,0.08,-63.44,-22.59,-22.37
123487.0,0.54,0.38,-2.3,0.94,-0.38,0.08,-63.51,-22.52,-22.29
123552.0,0.47,0.3,-1.91,0.92,-0.37,0.08,-63.59,-22.44,-22.15
123619.0,0.06,0.66,-1.81,0.95,-0.36,0.06,-63.73,-22.3,-21.87
123685.0,-0.17,0.51,-1.82,0.95,-0.35,0.06,-63.85,-22.18,-21.6
123751.0,-0.09,1.24,-1.65,0.94,-0.34,0.08,-64.0,-22.03,-21.31
123819.0,-0.49,0.92,-1.47,0.96,-0.34,0.09,-64.14,-21.89,-21.01
123885.0,-0.6,0.89,-1.16,0.93,-0.34,0.1,-64.25,-21.78,-20.79
123951.0,-0.49,0.89,-1.09,0.98,-0.35,0.1,-64.35,-21.68,-20.62
124019.0,-1.11,-0.91,-2.17,0.99,-0.34,0.08,-64.48,-21.55,-20.32
124085.0,-1.44,-0.01,-2.23,0.95,-0.33,0.04,-64.54,-21.49,-20.18
124151.0,-1.44,1.86,-2.34,0.98,-0.33,0.02,-64.64,-21.39,-19.96
124219.0,-2.12,1.05,-3.35,1.02,-0.35,0.04,-64.69,-21.34,-19.8
124284.0,-3.23,1.72,-3.71,0.97,-0.32,0.02,-64.71,-21.32,-19.63
124351.0,-4.29,1.02,-3.33,0.94,-0.29,0.03,-64.75,-21.28,-19.35
124417.0,-4.77,1.47,-2.69,0.95,-0.28,0.06,-64.8,-21.23,-19.01
124483.0,-5.59,1.27,-2.31,1.0,-0.26,0.08,-64.93,-21.1,-18.45
124551.0,-6.21,-0.05,-2.04,0.94,-0.24,0.06,-65.04,-20.99,-17.94
124617.0,-6.11,1.13,-1.22,0.95,-0.24,0.01,-65.14,-20.89,-17.48
124683.0,-6.15,1.36,-0.3,0.91,-0.25,0.04,-65.13,-20.9,-17.3
124751.0,-6.13,1.66,0.63,0.91,-0.25,0.03,-65.14,-20.89,-17.13
124817.0,-5.27,3.63,1.6,0.91,-0.26,0.02,-65.16,-20.87,-17.01
124883.0,-4.19,5.38,1.84,0.94,-0.25,0.07,-65.31,-20.72,-16.7
124951.0,-3.44,7.47,2.05,1.02,-0.3,0.13,-65.41,-20.62,-16.59
125018.0,-7.6,-4.01,-1.21,0.9,-0.21,0.41,-65.53,-20.5,-16.03
125083.0,1.43,1.42,-0.58,1.06,-0.35,0.05,-65.77,-20.26,-16.09
125152.0,1.14,0.73,-0.11,0.97,-0.38,0.24,-65.81,-20.22,-16.54
125217.0,2.18,-2.28,-0.9,0.91,-0.31,0.14,-66.08,-19.95,-16.47
125284.0,1.69,-2.4,-0.71,0.99,-0.31,0.05,-66.35,-19.68,-16.35
125351.0,1.15,-1.47,-0.79,0.93,-0.38,0.01,-66.25,-19.78,-17.04
125418.0,1.04,0.04,-1.08,0.95,-0.39,0.01,-66.16,-19.87,-17.63
125485.0,-0.4,0.44,-1.04,0.94,-0.39,0.04,-65.95,-20.09,-18.32
125552.0,-0.8,0.15,-0.95,0.92,-0.38,0.05,-65.73,-20.3,-18.92
125619.0,-0.96,0.52,-1.06,0.95,-0.39,0.03,-65.51,-20.52,-19.47
125685.0,-1.37,0.64,-0.79,0.9,-0.39,0.01,-65.22,-20.81,-20.13
125753.0,-1.03,1.21,-1.08,0.93,-0.38,0.02,-65.06,-20.98,-20.48
125819.0,-2.21,0.04,-2.07,1.03,-0.44,0.04,-64.76,-21.27,-21.01
125885.0,-2.34,2.34,-2.42,0.96,-0.36,-0.03,-64.68,-21.35,-21.0
125952.0,-4.02,1.68,-1.84,0.94,-0.28,0.03,-64.76,-21.27,-20.47
