timestamp millis,GyrX,GyrY,GyrZ,AccX,AccY,AccZ,Complementary_Filter_Angle_Calculated,Complementary_Filter_Angle,Kalman_Filter_Angle
29288.0,1.53,-0.36,-0.52,0.05,-0.97,0.18,-0.38,-78.49,-79.24
29353.0,1.7,-0.59,-0.57,0.02,-0.98,0.17,-0.36,-78.51,-79.35
29421.0,1.78,-0.34,-0.68,0.05,-0.97,0.21,-0.55,-78.32,-78.99
29488.0,1.95,-0.81,-0.53,0.04,-0.97,0.2,-0.67,-78.2,-78.82
29553.0,2.01,-0.98,-0.69,0.05,-0.97,0.19,-0.78,-78.09,-78.66
29621.0,2.02,-1.11,-0.92,0.04,-0.95,0.22,-1.02,-77.85,-78.24
29685.0,1.98,-2.08,-0.58,0.1,-0.97,0.29,-1.49,-77.37,-77.26
29753.0,1.65,-2.37,-0.43,-0.02,-1.0,0.27,-1.23,-77.11,-76.8
29819.0,1.1,-0.11,-0.73,0.0,-0.98,0.27,-1.47,-76.86,-76.36
29886.0,1.06,0.64,-1.25,0.02,-0.97,0.25,-1.64,-76.69,-76.13
29954.0,0.96,0.32,-1.63,0.03,-0.97,0.26,-1.82,-76.51,-75.86
30019.0,0.63,-0.11,-1.84,0.05,-0.97,0.29,-2.08,-76.25,-75.39
30086.0,0.24,0.92,-1.45,0.1,-0.96,0.26,-2.24,-76.09,-75.13
30153.0,0.1,1.27,-0.99,0.04,-0.97,0.25,-2.31,-76.03,-75.1
30220.0,-0.15,1.31,-1.16,0.05,-0.98,0.25,-2.33,-76.0,-75.13
30285.0,-0.13,2.15,-1.21,0.07,-0.97,0.22,-2.28,-76.06,-75.35
30353.0,-0.11,2.21,-1.26,0.03,-0.98,0.21,-2.14,-76.19,-75.73
30417.0,0.08,2.08,-1.34,0.1,-0.97,0.19,-2.07,-76.27,-75.96
30485.0,0.37,0.73,-1.21,0.04,-0.97,0.19,-1.92,-76.42,-76.38
30554.0,0.46,0.48,-1.24,0.07,-0.97,0.18,-1.79,-76.55,-76.73
30618.0,0.76,0.12,-0.95,0.06,-0.97,0.19,-1.71,-76.62,-76.95
30686.0,0.64,0.53,-0.95,0.05,-0.97,0.2,-1.66,-76.68,-77.1
30751.0,0.67,0.33,-1.05,0.05,-0.98,0.21,-1.62,-76.72,-77.21
30818.0,0.66,0.4,-1.09,0.06,-0.98,0.2,-1.55,-76.78,-77.36
30885.0,0.67,0.56,-1.07,0.06,-0.98,0.19,-1.48,-76.85,-77.53
30952.0,0.73,0.5,-1.02,0.06,-0.98,0.19,-1.41,-76.92,-77.69
31017.0,0.74,0.5,-1.04,0.06,-0.98,0.19,-1.34,-77.0,-77.84
31085.0,0.81,0.6,-1.15,0.04,-0.98,0.19,-1.25,-77.08,-78.02
31150.0,0.85,0.61,-1.24,0.07,-0.98,0.18,-1.2,-77.14,-78.12
31217.0,0.91,0.58,-1.21,0.07,-0.98,0.19,-1.17,-77.17,-78.17
31284.0,0.92,0.53,-1.05,0.08,-0.97,0.19,-1.15,-77.19,-78.18
31349.0,0.89,0.52,-0.94,0.06,-0.98,0.19,-1.11,-77.22,-78.24
31417.0,0.92,0.4,-0.96,0.06,-0.98,0.19,-1.07,-77.27,-78.32
31483.0,0.89,0.43,-0.99,0.06,-0.98,0.18,-1.0,-77.33,-78.44
31549.0,0.89,0.38,-0.98,0.07,-0.98,0.19,-0.97,-77.36,-78.46
31618.0,0.87,0.19,-0.92,0.07,-0.97,0.19,-0.96,-77.37,-78.46
31683.0,0.89,0.28,-0.92,0.06,-0.98,0.19,-0.93,-77.4,-78.49
31750.0,0.89,0.44,-0.95,0.06,-0.98,0.19,-0.92,-77.42,-78.49
31817.0,0.85,0.43,-1.05,0.06,-0.98,0.19,-0.89,-77.44,-78.51
31882.0,0.88,0.44,-1.02,0.06,-0.98,0.2,-0.9,-77.43,-78.45
31949.0,0.83,0.48,-1.02,0.06,-0.98,0.19,-0.88,-77.45,-78.47
32017.0,0.85,0.42,-1.02,0.05,-0.98,0.19,-0.83,-77.5,-78.55
32081.0,0.82,0.51,-1.08,0.06,-0.98,0.19,-0.81,-77.53,-78.57
32150.0,0.87,0.5,-1.07,0.06,-0.98,0.19,-0.79,-77.55,-78.59
32216.0,0.9,0.53,-1.05,0.06,-0.98,0.19,-0.78,-77.56,-78.59
32282.0,0.89,0.4,-1.02,0.05,-0.98,0.19,-0.74,-77.6,-78.65
32350.0,0.89,0.35,-1.1,0.05,-0.98,0.19,-0.73,-77.61,-78.65
32416.0,0.86,0.44,-1.05,0.06,-0.98,0.19,-0.72,-77.61,-78.63
32482.0,0.89,0.45,-1.03,0.05,-0.98,0.19,-0.69,-77.64,-78.67
32549.0,0.85,0.21,-0.99,0.06,-0.98,0.19,-0.69,-77.65,-78.65
32616.0,0.82,0.23,-1.0,0.06,-0.98,0.19,-0.68,-77.65,-78.64
32681.0,0.88,0.16,-0.97,0.05,-0.98,0.18,-0.64,-77.69,-78.7
32750.0,0.92,0.31,-1.01,0.05,-0.98,0.2,-0.65,-77.68,-78.67
32815.0,0.86,0.43,-1.08,0.07,-0.98,0.19,-0.65,-77.68,-78.64
32882.0,0.89,0.39,-1.04,0.06,-0.98,0.19,-0.66,-77.67,-78.6
32950.0,0.92,0.31,-0.97,0.06,-0.98,0.19,-0.64,-77.69,-78.63
33014.0,0.91,0.36,-0.99,0.06,-0.98,0.19,-0.63,-77.7,-78.64
33082.0,0.92,0.23,-1.01,0.06,-0.98,0.19,-0.62,-77.71,-78.64
33148.0,0.92,0.37,-1.0,0.06,-0.98,0.19,-0.61,-77.72,-78.67
33214.0,0.9,0.37,-1.05,0.06,-0.97,0.19,-0.63,-77.71,-78.61
33282.0,0.89,0.27,-1.08,0.06,-0.98,0.2,-0.66,-77.68,-78.53
33348.0,0.86,0.46,-1.09,0.06,-0.97,0.19,-0.66,-77.67,-78.51
33414.0,0.89,0.46,-1.02,0.07,-0.98,0.19,-0.66,-77.67,-78.51
33482.0,0.86,0.45,-0.98,0.06,-0.97,0.19,-0.66,-77.67,-78.49
33547.0,0.88,0.47,-1.02,0.06,-0.98,0.19,-0.67,-77.66,-78.47
33614.0,0.86,0.5,-1.05,0.06,-0.98,0.19,-0.67,-77.67,-78.48
33682.0,0.89,0.31,-0.99,0.07,-0.98,0.2,-0.69,-77.64,-78.41
33746.0,0.89,0.33,-0.97,0.06,-0.98,0.19,-0.69,-77.64,-78.42
33814.0,0.87,0.3,-1.02,0.06,-0.98,0.19,-0.68,-77.65,-78.45
33882.0,0.82,0.49,-0.95,0.07,-0.98,0.19,-0.69,-77.64,-78.42
33946.0,0.87,0.37,-0.92,0.06,-0.98,0.19,-0.68,-77.66,-78.45
34015.0,0.83,0.32,-0.98,0.06,-0.97,0.19,-0.67,-77.66,-78.46
34080.0,0.91,0.37,-0.98,0.06,-0.98,0.19,-0.66,-77.68,-78.49
34147.0,0.88,0.45,-1.07,0.05,-0.98,0.19,-0.63,-77.7,-78.54
34214.0,0.92,0.5,-1.1,0.06,-0.98,0.19,-0.65,-77.69,-78.51
34279.0,0.9,0.2,-0.92,0.06,-0.98,0.2,-0.68,-77.66,-78.43
34347.0,0.89,0.1,-0.89,0.06,-0.98,0.19,-0.67,-77.66,-78.45
34414.0,0.91,0.08,-0.88,0.06,-0.98,0.19,-0.67,-77.67,-78.46
34479.0,0.89,0.27,-0.92,0.04,-0.98,0.19,-0.66,-77.67,-78.48
34546.0,0.82,0.45,-1.02,0.05,-0.98,0.19,-0.67,-77.67,-78.46
34614.0,0.83,0.57,-1.1,0.06,-0.98,0.18,-0.64,-77.7,-78.52
34678.0,0.83,0.51,-1.05,0.07,-0.98,0.19,-0.64,-77.7,-78.52
34747.0,0.8,0.44,-1.05,0.05,-0.98,0.19,-0.6,-77.73,-78.58
34814.0,0.82,0.54,-1.14,0.06,-0.98,0.19,-0.59,-77.74,-78.59
34879.0,0.83,0.5,-1.11,0.06,-0.97,0.19,-0.59,-77.75,-78.6
34947.0,0.85,0.38,-1.08,0.07,-0.98,0.18,-0.57,-77.76,-78.61
35013.0,0.86,0.25,-1.1,0.06,-0.98,0.19,-0.59,-77.74,-78.57
35079.0,0.82,0.36,-1.03,0.07,-0.97,0.19,-0.61,-77.72,-78.51
35146.0,0.77,0.53,-0.95,0.05,-0.98,0.19,-0.6,-77.73,-78.52
35211.0,0.81,0.8,-1.16,0.05,-0.98,0.18,-0.55,-77.78,-78.62
35278.0,0.79,0.53,-1.18,0.07,-0.97,0.19,-0.57,-77.76,-78.57
35347.0,0.87,0.29,-1.02,0.07,-0.98,0.18,-0.56,-77.77,-78.59
35410.0,0.86,0.18,-0.97,0.05,-0.98,0.19,-0.56,-77.78,-78.59
35479.0,0.86,0.58,-1.22,0.06,-0.98,0.19,-0.54,-77.79,-78.62
35547.0,0.88,0.76,-1.24,0.07,-0.98,0.18,-0.53,-77.81,-78.66
35611.0,0.91,0.53,-1.11,0.08,-0.98,0.18,-0.54,-77.79,-78.61
35679.0,0.98,0.15,-0.92,0.08,-0.98,0.19,-0.58,-77.76,-78.54
35745.0,0.92,-0.04,-0.76,0.06,-0.98,0.19,-0.59,-77.74,-78.51
35811.0,0.91,0.31,-0.92,0.05,-0.98,0.19,-0.57,-77.76,-78.55
35878.0,0.87,0.64,-1.01,0.06,-0.98,0.19,-0.58,-77.76,-78.55
35943.0,0.82,0.47,-1.05,0.05,-0.98,0.19,-0.56,-77.77,-78.57
36011.0,0.82,0.53,-1.08,0.06,-0.98,0.18,-0.51,-77.82,-78.67
36079.0,0.88,0.43,-0.95,0.08,-0.98,0.19,-0.55,-77.78,-78.58
36143.0,0.9,0.24,-0.79,0.07,-0.98,0.19,-0.55,-77.78,-78.57
36211.0,0.83,0.2,-0.78,0.06,-0.98,0.19,-0.53,-77.8,-78.62
36279.0,0.8,0.47,-1.0,0.04,-0.98,0.19,-0.52,-77.82,-78.65
36343.0,0.82,0.45,-1.17,0.05,-0.98,0.18,-0.48,-77.86,-78.73
36411.0,0.88,0.37,-1.24,0.07,-0.98,0.17,-0.44,-77.89,-78.8
36476.0,0.87,0.26,-1.02,0.08,-0.98,0.19,-0.48,-77.85,-78.68
36543.0,0.91,0.19,-0.92,0.05,-0.99,0.18,-0.43,-77.9,-78.81
36611.0,0.88,0.37,-1.01,0.05,-0.98,0.19,-0.42,-77.91,-78.81
36675.0,0.87,0.42,-0.95,0.07,-0.98,0.19,-0.44,-77.9,-78.77
36743.0,0.82,0.43,-0.94,0.06,-0.98,0.18,-0.42,-77.92,-78.79
36810.0,0.91,0.38,-0.99,0.06,-0.98,0.19,-0.44,-77.9,-78.75
36875.0,0.83,0.31,-0.95,0.06,-0.98,0.19,-0.44,-77.9,-78.73
36943.0,0.87,0.19,-0.93,0.06,-0.98,0.18,-0.41,-77.92,-78.78
37011.0,0.85,0.34,-0.99,0.06,-0.98,0.18,-0.4,-77.94,-78.8
37075.0,0.9,0.32,-1.05,0.05,-0.98,0.18,-0.38,-77.96,-78.84
37143.0,0.89,0.6,-1.2,0.07,-0.98,0.18,-0.39,-77.95,-78.81
37211.0,0.91,0.48,-1.14,0.08,-0.98,0.18,-0.4,-77.94,-78.78
37275.0,0.81,0.9,-1.2,0.06,-0.97,0.18,-0.38,-77.95,-78.8
37343.0,0.89,0.48,-1.12,0.07,-0.98,0.19,-0.41,-77.92,-78.72
37407.0,0.89,0.44,-1.11,0.07,-0.98,0.18,-0.39,-77.94,-78.76
37476.0,0.92,0.1,-0.86,0.08,-0.98,0.18,-0.41,-77.92,-78.72
37543.0,0.93,0.29,-0.77,0.07,-0.98,0.19,-0.43,-77.9,-78.68
37608.0,0.92,0.21,-0.86,0.05,-0.98,0.19,-0.43,-77.91,-78.7
37676.0,0.83,0.53,-1.07,0.05,-0.98,0.19,-0.42,-77.92,-78.71
37743.0,0.84,0.56,-1.11,0.07,-0.98,0.18,-0.4,-77.94,-78.76
37808.0,0.88,0.35,-0.95,0.07,-0.98,0.18,-0.4,-77.94,-78.75
37875.0,0.95,0.08,-0.89,0.06,-0.98,0.18,-0.38,-77.95,-78.79
37944.0,0.89,0.24,-0.95,0.05,-0.98,0.19,-0.38,-77.96,-78.79
38008.0,0.89,0.48,-1.06,0.06,-0.98,0.19,-0.39,-77.94,-78.75
38076.0,0.89,0.4,-1.01,0.06,-0.98,0.19,-0.41,-77.92,-78.71
38144.0,0.92,0.34,-0.93,0.06,-0.98,0.18,-0.39,-77.94,-78.75
38208.0,0.92,0.21,-0.82,0.05,-0.98,0.19,-0.4,-77.93,-78.74
38276.0,0.88,0.41,-0.96,0.06,-0.98,0.19,-0.4,-77.93,-78.73
38340.0,0.86,0.43,-1.02,0.05,-0.98,0.18,-0.39,-77.95,-78.76
38408.0,0.86,0.38,-0.99,0.06,-0.98,0.19,-0.4,-77.94,-78.73
38475.0,0.89,0.31,-1.02,0.06,-0.98,0.19,-0.4,-77.94,-78.74
38540.0,0.83,0.46,-1.05,0.05,-0.98,0.19,-0.39,-77.94,-78.74
38608.0,0.81,0.48,-1.08,0.06,-0.98,0.18,-0.37,-77.96,-78.77
38676.0,0.86,0.4,-1.03,0.07,-0.98,0.18,-0.38,-77.95,-78.75
38740.0,0.88,0.17,-0.89,0.06,-0.98,0.18,-0.37,-77.97,-78.79
38808.0,0.84,0.31,-0.96,0.05,-0.98,0.19,-0.38,-77.95,-78.74
38876.0,0.82,0.45,-1.05,0.05,-0.98,0.18,-0.35,-77.98,-78.81
38940.0,0.84,0.53,-1.11,0.06,-0.98,0.19,-0.35,-77.98,-78.8
39008.0,0.85,0.33,-1.02,0.06,-0.98,0.18,-0.35,-77.99,-78.8
39076.0,0.82,0.41,-1.08,0.05,-0.98,0.18,-0.32,-78.01,-78.86
39141.0,0.85,0.45,-1.08,0.06,-0.98,0.18,-0.31,-78.02,-78.87
39208.0,0.92,0.37,-1.05,0.06,-0.98,0.18,-0.3,-78.03,-78.89
39273.0,0.84,0.32,-0.99,0.05,-0.98,0.19,-0.3,-78.04,-78.88
39341.0,0.84,0.31,-1.03,0.06,-0.98,0.18,-0.3,-78.04,-78.87
39408.0,0.88,0.4,-1.02,0.06,-0.98,0.18,-0.28,-78.05,-78.9
39473.0,0.87,0.38,-1.02,0.06,-0.98,0.18,-0.26,-78.08,-78.95
39540.0,0.87,0.29,-1.0,0.06,-0.97,0.18,-0.24,-78.1,-78.99
39608.0,0.86,0.27,-1.01,0.06,-0.98,0.19,-0.24,-78.09,-78.96
39672.0,0.89,0.42,-1.05,0.05,-0.98,0.19,-0.25,-78.08,-78.93
39741.0,0.88,0.44,-1.06,0.06,-0.98,0.19,-0.27,-78.07,-78.89
39809.0,0.86,0.44,-1.06,0.06,-0.98,0.19,-0.29,-78.04,-78.83
39873.0,0.9,0.37,-1.08,0.06,-0.98,0.18,-0.29,-78.04,-78.83
39941.0,0.86,0.37,-1.0,0.07,-0.98,0.18,-0.29,-78.05,-78.84
40005.0,0.85,0.38,-1.03,0.06,-0.98,0.18,-0.27,-78.06,-78.86
40073.0,0.86,0.32,-1.05,0.06,-0.98,0.19,-0.29,-78.04,-78.81
40140.0,0.86,0.37,-1.04,0.06,-0.98,0.18,-0.3,-78.04,-78.8
40205.0,0.89,0.34,-1.01,0.06,-0.98,0.18,-0.28,-78.05,-78.84
40272.0,0.89,0.37,-1.03,0.06,-0.98,0.18,-0.29,-78.04,-78.82
40341.0,0.91,0.4,-1.02,0.06,-0.98,0.19,-0.32,-78.01,-78.76
40406.0,0.91,0.37,-0.98,0.06,-0.98,0.18,-0.31,-78.02,-78.79
40473.0,0.9,0.34,-0.95,0.06,-0.98,0.18,-0.29,-78.04,-78.83
40541.0,0.86,0.37,-0.95,0.06,-0.98,0.19,-0.32,-78.01,-78.76
40605.0,0.88,0.32,-0.92,0.06,-0.98,0.18,-0.32,-78.02,-78.78
40673.0,0.89,0.31,-0.92,0.05,-0.98,0.19,-0.32,-78.01,-78.77
40741.0,0.92,0.41,-1.02,0.06,-0.98,0.18,-0.31,-78.02,-78.8
40806.0,0.91,0.49,-1.08,0.06,-0.98,0.18,-0.3,-78.03,-78.83
40873.0,0.9,0.42,-1.04,0.06,-0.98,0.18,-0.29,-78.05,-78.85
40938.0,0.86,0.32,-0.95,0.07,-0.98,0.18,-0.28,-78.05,-78.86
41006.0,0.91,0.31,-0.97,0.06,-0.98,0.18,-0.29,-78.05,-78.85
41073.0,0.91,0.29,-0.98,0.05,-0.98,0.18,-0.28,-78.06,-78.87
41138.0,0.92,0.34,-1.02,0.06,-0.98,0.18,-0.27,-78.07,-78.9
41205.0,0.88,0.33,-0.99,0.06,-0.98,0.18,-0.25,-78.08,-78.93
41274.0,0.88,0.37,-1.0,0.06,-0.98,0.18,-0.26,-78.08,-78.91
41338.0,0.88,0.42,-1.02,0.06,-0.98,0.19,-0.29,-78.04,-78.82
41406.0,0.88,0.42,-1.01,0.06,-0.98,0.18,-0.29,-78.04,-78.82
41474.0,0.86,0.38,-0.96,0.06,-0.97,0.19,-0.31,-78.03,-78.79
41538.0,0.85,0.27,-0.92,0.06,-0.98,0.19,-0.32,-78.02,-78.76
41606.0,0.87,0.28,-0.95,0.05,-0.99,0.19,-0.32,-78.02,-78.77
41673.0,0.89,0.37,-1.0,0.06,-0.98,0.18,-0.31,-78.02,-78.78
41738.0,0.86,0.44,-1.02,0.06,-0.98,0.19,-0.32,-78.01,-78.76
41806.0,0.87,0.35,-0.99,0.06,-0.98,0.19,-0.32,-78.01,-78.76
41871.0,0.89,0.31,-1.01,0.06,-0.98,0.18,-0.32,-78.02,-78.78
41938.0,0.89,0.37,-1.02,0.05,-0.98,0.19,-0.34,-77.99,-78.72
42006.0,0.86,0.37,-1.04,0.06,-0.98,0.19,-0.34,-77.99,-78.73
42071.0,0.86,0.44,-1.08,0.06,-0.98,0.19,-0.35,-77.98,-78.71
42138.0,0.87,0.37,-1.06,0.06,-0.98,0.19,-0.36,-77.97,-78.69
42206.0,0.85,0.36,-1.04,0.06,-0.98,0.18,-0.36,-77.98,-78.71
42270.0,0.86,0.34,-1.0,0.06,-0.98,0.19,-0.36,-77.97,-78.7
42338.0,0.85,0.42,-1.04,0.06,-0.97,0.19,-0.37,-77.96,-78.68
42406.0,0.83,0.37,-1.03,0.06,-0.98,0.19,-0.36,-77.97,-78.7
42470.0,0.85,0.37,-1.0,0.06,-0.98,0.18,-0.36,-77.98,-78.71
42539.0,0.84,0.31,-0.95,0.05,-0.98,0.18,-0.33,-78.0,-78.78
42602.0,0.85,0.37,-1.01,0.06,-0.98,0.18,-0.32,-78.01,-78.8
42671.0,0.84,0.38,-1.01,0.06,-0.98,0.18,-0.32,-78.02,-78.8
42738.0,0.85,0.35,-0.96,0.06,-0.98,0.19,-0.31,-78.02,-78.81
42803.0,0.86,0.4,-1.02,0.05,-0.98,0.18,-0.3,-78.04,-78.84
42870.0,0.85,0.42,-1.0,0.07,-0.98,0.18,-0.31,-78.03,-78.81
42938.0,0.83,0.37,-1.0,0.05,-0.98,0.18,-0.29,-78.04,-78.84
43002.0,0.85,0.42,-1.02,0.06,-0.98,0.18,-0.28,-78.06,-78.88
43070.0,0.85,0.44,-1.07,0.05,-0.98,0.18,-0.27,-78.06,-78.88
43138.0,0.9,0.43,-1.05,0.06,-0.98,0.18,-0.25,-78.08,-78.93
43202.0,0.91,0.37,-1.02,0.06,-0.98,0.18,-0.24,-78.1,-78.95
43270.0,0.91,0.31,-0.98,0.06,-0.98,0.18,-0.22,-78.11,-78.98
43334.0,0.91,0.26,-0.97,0.05,-0.98,0.19,-0.23,-78.11,-78.96
43402.0,0.89,0.32,-1.0,0.05,-0.98,0.18,-0.23,-78.11,-78.95
43469.0,0.9,0.44,-1.04,0.05,-0.98,0.18,-0.2,-78.13,-79.0
43534.0,0.89,0.49,-1.05,0.06,-0.98,0.18,-0.21,-78.13,-78.98
43601.0,0.89,0.45,-1.03,0.06,-0.98,0.19,-0.22,-78.12,-78.95
43669.0,0.89,0.33,-1.01,0.05,-0.98,0.18,-0.21,-78.13,-78.97
43734.0,0.92,0.35,-0.99,0.06,-0.98,0.19,-0.23,-78.1,-78.91
43801.0,0.92,0.35,-1.01,0.06,-0.98,0.18,-0.22,-78.12,-78.94
43868.0,0.91,0.31,-1.0,0.06,-0.98,0.18,-0.2,-78.13,-78.97
43934.0,0.9,0.3,-0.97,0.06,-0.98,0.19,-0.21,-78.12,-78.95
44002.0,0.9,0.45,-1.05,0.05,-0.98,0.19,-0.22,-78.11,-78.92
44066.0,0.86,0.45,-1.06,0.06,-0.98,0.19,-0.23,-78.1,-78.89
44134.0,0.92,0.35,-1.02,0.06,-0.98,0.19,-0.24,-78.09,-78.88
44201.0,0.89,0.26,-0.96,0.06,-0.98,0.19,-0.25,-78.08,-78.85
44266.0,0.89,0.36,-1.0,0.06,-0.98,0.19,-0.27,-78.07,-78.82
44334.0,0.91,0.39,-1.02,0.06,-0.98,0.19,-0.28,-78.05,-78.79
44401.0,0.9,0.4,-1.0,0.05,-0.98,0.19,-0.28,-78.06,-78.8
44466.0,0.9,0.4,-1.05,0.05,-0.97,0.19,-0.28,-78.05,-78.79
44533.0,0.92,0.37,-1.02,0.06,-0.98,0.19,-0.31,-78.03,-78.75
44600.0,0.87,0.34,-0.99,0.05,-0.98,0.18,-0.3,-78.04,-78.78
44665.0,0.88,0.32,-1.01,0.06,-0.98,0.19,-0.31,-78.02,-78.75
44734.0,0.89,0.34,-1.04,0.05,-0.98,0.18,-0.3,-78.03,-78.77
44797.0,0.91,0.42,-1.05,0.06,-0.98,0.19,-0.31,-78.02,-78.76
44866.0,0.89,0.41,-1.06,0.06,-0.98,0.2,-0.35,-77.98,-78.67
44934.0,0.87,0.36,-1.05,0.05,-0.98,0.19,-0.36,-77.97,-78.65
44998.0,0.85,0.33,-1.03,0.05,-0.98,0.19,-0.37,-77.96,-78.64
45066.0,0.88,0.35,-1.05,0.06,-0.98,0.19,-0.39,-77.95,-78.62
45133.0,0.85,0.24,-1.07,0.06,-0.98,0.19,-0.4,-77.94,-78.6
45198.0,0.85,0.34,-1.01,0.06,-0.98,0.18,-0.39,-77.95,-78.64
45265.0,0.86,0.55,-1.04,0.06,-0.98,0.18,-0.37,-77.96,-78.68
45332.0,0.86,0.49,-1.11,0.06,-0.98,0.19,-0.38,-77.96,-78.67
45398.0,0.87,0.34,-1.05,0.05,-0.98,0.18,-0.36,-77.97,-78.72
45465.0,0.89,0.31,-1.04,0.06,-0.98,0.19,-0.4,-77.94,-78.64
45530.0,0.87,0.37,-1.02,0.06,-0.98,0.19,-0.41,-77.92,-78.61
45597.0,0.86,0.39,-1.02,0.06,-0.98,0.18,-0.4,-77.94,-78.65
45665.0,0.88,0.31,-1.02,0.05,-0.98,0.18,-0.36,-77.97,-78.73
45729.0,0.86,0.27,-1.07,0.06,-0.98,0.18,-0.36,-77.98,-78.75
45797.0,0.89,0.4,-1.05,0.06,-0.98,0.18,-0.33,-78.01,-78.82
45863.0,0.87,0.34,-1.04,0.06,-0.98,0.18,-0.31,-78.02,-78.85
45929.0,0.85,0.4,-1.03,0.06,-0.98,0.19,-0.33,-78.01,-78.81
45997.0,0.86,0.37,-0.98,0.06,-0.98,0.18,-0.3,-78.03,-78.86
46061.0,0.84,0.45,-1.05,0.05,-0.98,0.19,-0.31,-78.02,-78.83
46129.0,0.85,0.4,-1.04,0.06,-0.98,0.19,-0.32,-78.01,-78.79
46197.0,0.86,0.47,-1.02,0.07,-0.98,0.18,-0.32,-78.02,-78.81
46261.0,0.89,0.44,-1.03,0.06,-0.98,0.18,-0.32,-78.01,-78.79
46329.0,0.88,0.36,-0.98,0.06,-0.98,0.18,-0.32,-78.01,-78.79
46397.0,0.87,0.26,-0.97,0.06,-0.98,0.19,-0.33,-78.0,-78.77
46461.0,0.85,0.34,-1.02,0.06,-0.98,0.19,-0.33,-78.0,-78.78
46529.0,0.89,0.34,-1.03,0.06,-0.98,0.18,-0.32,-78.02,-78.8
46595.0,0.86,0.4,-1.02,0.06,-0.98,0.19,-0.33,-78.01,-78.78
46661.0,0.89,0.34,-1.02,0.06,-0.98,0.19,-0.36,-77.97,-78.69
46729.0,0.86,0.37,-1.0,0.06,-0.98,0.19,-0.39,-77.95,-78.64
46793.0,0.86,0.22,-0.96,0.07,-0.98,0.19,-0.4,-77.93,-78.61
46861.0,0.87,0.32,-0.92,0.05,-0.98,0.19,-0.41,-77.93,-78.61
46928.0,0.78,0.37,-0.99,0.06,-0.97,0.18,-0.39,-77.94,-78.65
46993.0,0.89,0.47,-1.02,0.06,-0.98,0.19,-0.42,-77.92,-78.6
47060.0,0.92,0.37,-0.98,0.07,-0.98,0.18,-0.41,-77.92,-78.62
47127.0,0.92,0.37,-0.94,0.06,-0.98,0.18,-0.4,-77.93,-78.65
47193.0,0.92,0.34,-0.99,0.06,-0.98,0.19,-0.4,-77.93,-78.67
47260.0,0.89,0.33,-0.96,0.05,-0.98,0.18,-0.37,-77.96,-78.74
47327.0,0.9,0.35,-1.01,0.05,-0.98,0.19,-0.39,-77.95,-78.71
47392.0,0.89,0.36,-1.0,0.05,-0.98,0.19,-0.37,-77.96,-78.75
47460.0,0.85,0.41,-1.0,0.06,-0.98,0.19,-0.38,-77.95,-78.73
47524.0,0.89,0.41,-1.03,0.06,-0.98,0.19,-0.39,-77.95,-78.71
47592.0,0.85,0.44,-1.02,0.06,-0.98,0.18,-0.36,-77.97,-78.77
47659.0,0.84,0.48,-0.98,0.04,-0.98,0.19,-0.37,-77.97,-78.75
47724.0,0.86,0.39,-1.01,0.07,-0.98,0.18,-0.37,-77.96,-78.74
47792.0,0.89,0.31,-0.97,0.05,-0.98,0.19,-0.37,-77.97,-78.74
47858.0,0.87,0.28,-0.96,0.05,-0.98,0.19,-0.37,-77.97,-78.74
47924.0,0.86,0.37,-1.01,0.06,-0.98,0.18,-0.35,-77.99,-78.79
47992.0,0.86,0.37,-1.0,0.05,-0.98,0.19,-0.34,-78.0,-78.81
48056.0,0.85,0.38,-0.99,0.06,-0.98,0.18,-0.33,-78.0,-78.82
48124.0,0.89,0.32,-0.99,0.06,-0.98,0.19,-0.33,-78.01,-78.82
48190.0,0.88,0.18,-1.02,0.05,-0.98,0.18,-0.31,-78.02,-78.85
48257.0,0.84,0.27,-1.12,0.05,-0.97,0.19,-0.31,-78.03,-78.85
48324.0,0.79,0.45,-1.36,0.05,-0.98,0.19,-0.33,-78.0,-78.78
48390.0,0.79,0.37,-1.44,0.07,-0.98,0.18,-0.32,-78.01,-78.8
48456.0,0.82,0.16,-1.37,0.07,-0.98,0.18,-0.31,-78.02,-78.81
48524.0,0.76,0.19,-1.34,0.05,-0.98,0.18,-0.29,-78.04,-78.85
48589.0,0.73,0.35,-1.58,0.07,-0.97,0.18,-0.28,-78.05,-78.86
48656.0,0.77,0.31,-1.63,0.06,-0.98,0.18,-0.25,-78.08,-78.91
48723.0,0.92,-0.1,-1.73,0.11,-0.99,0.19,-0.34,-78.0,-78.71
48788.0,0.92,0.37,-1.82,0.11,-0.98,0.17,-0.39,-77.95,-78.6
48856.0,0.94,-0.68,-0.97,0.08,-0.97,0.18,-0.4,-77.94,-78.6
48921.0,1.08,-0.69,-1.05,0.12,-0.97,0.18,-0.51,-77.83,-78.37
48988.0,1.35,-0.27,-1.24,0.03,-1.0,0.16,-0.39,-77.94,-78.71
49055.0,1.26,0.53,-1.34,0.09,-0.99,0.17,-0.39,-77.94,-78.74
49121.0,1.47,0.5,-1.63,0.09,-0.97,0.17,-0.42,-77.91,-78.73
49187.0,1.74,0.16,-2.21,0.08,-0.99,0.19,-0.49,-77.84,-78.63
49255.0,1.27,0.01,-1.78,0.19,-0.95,0.21,-0.88,-77.46,-77.76
49319.0,1.52,-0.51,-0.75,0.16,-0.97,0.22,-1.2,-77.14,-77.13
49387.0,1.56,0.02,-0.54,0.07,-0.97,0.2,-1.24,-77.09,-77.16
49454.0,1.11,1.3,-1.05,0.1,-1.0,0.22,-1.36,-76.98,-77.0
49519.0,1.41,-0.5,-0.44,0.15,-0.96,0.21,-1.59,-76.74,-76.58
49587.0,2.03,-0.09,1.1,0.24,-0.94,0.2,-2.09,-76.24,-75.61
49653.0,2.93,0.27,2.78,0.08,-1.02,0.27,-2.39,-75.94,-75.24
49720.0,2.08,1.07,3.97,0.04,-1.0,0.24,-2.49,-75.85,-75.29
49787.0,1.56,1.57,4.58,0.04,-0.93,0.24,-2.62,-75.71,-75.18
49853.0,2.35,1.73,5.06,-0.04,-0.97,0.22,-2.69,-75.65,-75.3
49920.0,0.79,1.11,4.76,-0.18,-0.94,0.29,-2.26,-75.22,-74.41
49987.0,2.2,-1.6,3.41,-0.33,-0.99,0.26,-1.56,-74.52,-73.06
50054.0,1.39,-0.81,1.4,-0.3,-0.93,0.34,-0.75,-73.71,-71.46
50120.0,1.37,-0.16,-1.1,-0.25,-0.93,0.27,-0.29,-73.25,-70.76
50188.0,1.7,0.11,-2.24,-0.2,-0.96,0.29,0.04,-72.92,-70.41
50252.0,0.98,-0.28,-2.39,-0.21,-1.0,0.25,0.18,-72.78,-70.44
50320.0,0.63,-0.27,-2.14,-0.17,-0.93,0.31,0.48,-72.48,-70.06
50385.0,0.63,0.68,-1.24,-0.12,-0.94,0.26,0.48,-72.48,-70.38
50452.0,1.36,1.19,-0.74,-0.17,-0.95,0.24,0.52,-72.44,-70.63
50520.0,1.76,0.11,-1.3,-0.22,-0.93,0.28,0.88,-72.08,-70.15
50586.0,1.37,0.41,-1.95,-0.16,-0.94,0.32,1.18,-71.78,-69.77
50652.0,0.71,0.51,-1.85,-0.13,-0.94,0.33,1.39,-71.57,-69.55
50719.0,0.48,0.52,-1.24,-0.12,-0.94,0.29,1.41,-71.56,-69.78
50786.0,1.11,0.69,-0.79,-0.15,-0.94,0.25,1.38,-71.58,-70.13
50851.0,1.53,0.57,-0.92,-0.16,-0.94,0.27,1.5,-71.46,-70.13
50920.0,1.74,0.59,-1.11,-0.15,-0.94,0.29,1.67,-71.29,-70.02
50983.0,1.76,0.36,-1.02,-0.14,-0.94,0.32,1.91,-71.05,-69.74
51052.0,1.33,0.5,-0.88,-0.14,-0.94,0.35,2.18,-70.78,-69.37
51118.0,0.75,0.42,-0.79,-0.16,-0.94,0.33,2.36,-70.6,-69.15
51184.0,0.63,0.38,-0.96,-0.16,-0.94,0.31,2.47,-70.49,-69.11
51252.0,0.69,0.41,-1.08,-0.16,-0.94,0.31,2.58,-70.38,-69.06
51317.0,0.76,0.5,-1.05,-0.15,-0.94,0.3,2.62,-70.34,-69.18
51384.0,1.09,0.48,-0.92,-0.15,-0.95,0.3,2.67,-70.29,-69.27
51451.0,0.95,0.64,-0.87,-0.15,-0.93,0.32,2.8,-70.16,-69.14
51517.0,0.88,0.51,-0.85,-0.16,-0.94,0.31,2.88,-70.08,-69.15
51584.0,0.82,0.49,-0.81,-0.16,-0.94,0.31,2.97,-69.99,-69.1
51649.0,0.74,0.24,-0.81,-0.17,-0.94,0.31,3.05,-69.91,-69.06
51716.0,0.68,0.32,-0.97,-0.16,-0.94,0.31,3.11,-69.85,-69.07
51783.0,0.71,0.28,-1.01,-0.17,-0.94,0.3,3.15,-69.81,-69.11
51850.0,0.74,0.34,-1.02,-0.16,-0.94,0.3,3.18,-69.78,-69.18
51915.0,0.76,0.36,-1.05,-0.16,-0.94,0.3,3.19,-69.77,-69.27
51984.0,0.53,0.23,-1.08,-0.16,-0.94,0.32,3.29,-69.67,-69.14
52049.0,-0.13,0.4,-1.08,-0.14,-0.97,0.31,3.22,-69.74,-69.34
52116.0,-0.89,-0.69,-0.73,-0.16,-0.94,0.31,3.18,-69.78,-69.38
52184.0,-0.91,-0.37,-0.79,-0.17,-0.94,0.27,3.01,-69.95,-69.74
52249.0,-0.06,-0.71,-1.14,-0.14,-1.03,0.21,2.58,-70.38,-70.74
52316.0,-0.89,-1.23,-1.35,-0.15,-0.99,0.17,2.07,-70.89,-71.8
52381.0,-1.53,-4.24,-0.1,-0.12,-0.87,0.24,1.85,-71.11,-72.09
52447.0,0.08,-1.83,-0.21,-0.13,-0.98,0.33,1.92,-71.04,-71.82
52515.0,-1.18,-2.06,-0.87,-0.1,-1.05,0.06,0.94,-72.02,-73.9
52581.0,-2.88,-1.52,-0.95,-0.2,-0.99,0.16,0.55,-72.41,-74.36
52647.0,-0.49,-1.46,-0.25,-0.22,-0.75,0.31,1.18,-71.78,-72.61
52715.0,3.65,4.2,-1.41,-0.15,-0.99,0.14,0.96,-72.0,-73.36
52781.0,0.89,-1.33,-0.4,-0.17,-0.89,0.28,1.15,-71.81,-72.84
52847.0,3.3,0.32,-0.31,-0.17,-1.03,0.19,1.07,-71.89,-73.22
52913.0,1.33,0.47,-0.56,-0.26,-0.94,0.23,1.3,-71.66,-72.64
52979.0,1.41,2.89,-1.44,-0.07,-0.99,0.2,0.97,-71.99,-73.44
53047.0,0.8,1.95,-2.29,-0.26,-0.99,0.24,1.14,-71.82,-72.96
53112.0,0.62,0.49,-1.29,-0.15,-0.96,0.22,0.97,-72.0,-73.29
53179.0,0.43,0.38,-0.99,-0.15,-0.96,0.21,0.79,-72.17,-73.59
53246.0,0.63,0.92,-1.06,-0.19,-0.97,0.19,0.67,-72.29,-73.79
53312.0,0.95,0.69,-1.08,-0.16,-0.96,0.18,0.46,-72.5,-74.19
53379.0,1.31,0.85,-1.16,-0.15,-0.96,0.2,0.34,-72.62,-74.41
53444.0,1.24,0.73,-1.15,-0.16,-0.96,0.21,0.27,-72.69,-74.48
53511.0,1.34,0.85,-1.09,-0.17,-0.97,0.19,0.18,-72.78,-74.62
53578.0,1.55,1.24,-1.17,-0.16,-0.95,0.21,0.13,-72.83,-74.67
53645.0,1.73,1.03,-1.14,-0.15,-0.96,0.22,0.11,-72.85,-74.68
53710.0,1.77,0.66,-0.96,-0.16,-0.96,0.24,0.18,-72.78,-74.48
53778.0,1.51,0.56,-0.99,-0.16,-0.96,0.26,0.29,-72.67,-74.18
53844.0,0.88,0.38,-1.01,-0.15,-0.95,0.26,0.37,-72.59,-73.92
53911.0,0.11,0.24,-0.9,-0.15,-0.95,0.25,0.33,-72.63,-73.87
53979.0,0.07,0.07,-0.84,-0.17,-0.95,0.21,0.24,-72.72,-73.96
54044.0,0.57,0.21,-0.93,-0.17,-0.96,0.19,0.12,-72.84,-74.18
54111.0,1.08,0.44,-1.08,-0.16,-0.96,0.21,0.06,-72.9,-74.27
54177.0,1.07,0.33,-1.06,-0.16,-0.96,0.23,0.08,-72.89,-74.19
54245.0,0.84,0.32,-1.02,-0.16,-0.96,0.23,0.06,-72.9,-74.16
54310.0,0.86,0.37,-1.02,-0.16,-0.96,0.22,0.03,-72.93,-74.19
54377.0,1.0,0.39,-1.06,-0.16,-0.96,0.23,0.03,-72.93,-74.14
54445.0,0.86,0.4,-1.08,-0.16,-0.96,0.23,0.03,-72.93,-74.1
54511.0,0.85,0.39,-0.95,-0.16,-0.96,0.22,0.0,-72.96,-74.13
54577.0,0.86,0.33,-0.93,-0.16,-0.96,0.23,0.0,-72.96,-74.08
54643.0,0.83,0.32,-0.95,-0.17,-0.96,0.22,0.01,-72.95,-74.03
54711.0,0.86,0.39,-1.08,-0.16,-0.96,0.23,0.0,-72.96,-74.01
54777.0,0.86,0.37,-1.02,-0.16,-0.96,0.22,-0.02,-72.98,-74.03
54843.0,0.91,0.33,-1.0,-0.17,-0.96,0.22,-0.04,-73.0,-74.05
54912.0,0.9,0.33,-1.06,-0.16,-0.96,0.22,-0.06,-73.02,-74.08
54977.0,0.9,0.36,-1.06,-0.16,-0.96,0.22,-0.08,-73.04,-74.09
55044.0,0.85,0.4,-1.03,-0.16,-0.96,0.23,-0.07,-73.04,-74.06
55109.0,0.84,0.37,-0.99,-0.16,-0.96,0.23,-0.07,-73.03,-74.02
55178.0,0.81,0.34,-0.97,-0.16,-0.96,0.23,-0.08,-73.04,-74.01
55243.0,0.79,0.35,-0.98,-0.16,-0.96,0.23,-0.08,-73.04,-73.99
55310.0,0.86,0.37,-1.05,-0.17,-0.96,0.23,-0.07,-73.03,-73.94
55377.0,0.91,0.38,-1.08,-0.16,-0.96,0.22,-0.09,-73.05,-73.97
55443.0,0.93,0.38,-1.06,-0.16,-0.96,0.23,-0.08,-73.04,-73.95
55510.0,0.9,0.39,-1.04,-0.16,-0.96,0.22,-0.1,-73.06,-73.99
55576.0,0.85,0.37,-1.02,-0.16,-0.96,0.23,-0.09,-73.05,-73.95
55644.0,0.83,0.36,-1.02,-0.16,-0.96,0.22,-0.1,-73.06,-73.96
55709.0,0.84,0.35,-1.0,-0.16,-0.96,0.22,-0.12,-73.08,-73.99
55776.0,0.88,0.37,-1.01,-0.16,-0.96,0.22,-0.13,-73.09,-74.0
55842.0,0.9,0.37,-1.02,-0.16,-0.96,0.22,-0.16,-73.12,-74.06
55910.0,0.89,0.37,-1.03,-0.16,-0.96,0.22,-0.17,-73.13,-74.07
55975.0,0.89,0.4,-1.02,-0.16,-0.96,0.23,-0.15,-73.11,-74.02
56042.0,0.88,0.38,-1.03,-0.15,-0.96,0.23,-0.16,-73.12,-74.02
56110.0,0.86,0.36,-1.03,-0.16,-0.96,0.23,-0.15,-73.11,-73.99
56176.0,0.86,0.37,-1.02,-0.16,-0.96,0.23,-0.16,-73.12,-73.99
56242.0,0.86,0.36,-1.0,-0.16,-0.97,0.23,-0.17,-73.13,-74.0
56310.0,0.86,0.39,-1.04,-0.16,-0.96,0.23,-0.16,-73.12,-73.98
56376.0,0.92,0.41,-1.03,-0.16,-0.96,0.22,-0.18,-73.14,-74.01
56442.0,0.93,0.4,-1.02,-0.16,-0.96,0.22,-0.19,-73.15,-74.03
56510.0,0.89,0.38,-1.02,-0.16,-0.96,0.23,-0.18,-73.14,-74.0
56577.0,0.89,0.4,-1.0,-0.16,-0.96,0.22,-0.19,-73.15,-74.03
56642.0,0.91,0.44,-1.02,-0.16,-0.96,0.22,-0.19,-73.15,-74.02
56709.0,0.92,0.44,-1.08,-0.16,-0.96,0.22,-0.19,-73.15,-74.02
56776.0,0.86,0.42,-1.03,-0.16,-0.96,0.22,-0.23,-73.19,-74.09
56843.0,0.92,0.37,-0.98,-0.16,-0.96,0.22,-0.23,-73.19,-74.09
56909.0,0.91,0.37,-1.0,-0.17,-0.96,0.22,-0.22,-73.18,-74.05
56975.0,0.9,0.37,-1.03,-0.16,-0.96,0.22,-0.23,-73.19,-74.06
57043.0,0.89,0.38,-1.05,-0.16,-0.96,0.23,-0.21,-73.17,-74.02
57109.0,0.85,0.34,-1.06,-0.16,-0.96,0.22,-0.23,-73.19,-74.06
57176.0,0.88,0.37,-1.06,-0.16,-0.96,0.22,-0.24,-73.2,-74.07
57243.0,0.85,0.36,-1.05,-0.16,-0.96,0.23,-0.24,-73.2,-74.05
57310.0,0.82,0.34,-1.01,-0.16,-0.96,0.22,-0.25,-73.21,-74.07
57375.0,0.85,0.28,-1.02,-0.17,-0.96,0.22,-0.24,-73.2,-74.03
57443.0,0.89,0.33,-1.02,-0.16,-0.96,0.23,-0.24,-73.2,-74.03
57509.0,0.88,0.4,-1.02,-0.16,-0.96,0.22,-0.26,-73.22,-74.07
57576.0,0.92,0.35,-0.98,-0.16,-0.96,0.22,-0.27,-73.23,-74.09
57644.0,0.91,0.39,-1.02,-0.16,-0.96,0.23,-0.24,-73.2,-74.02
57710.0,0.82,0.35,-1.01,-0.16,-0.96,0.23,-0.22,-73.18,-73.97
57776.0,0.84,0.34,-1.02,-0.16,-0.96,0.22,-0.22,-73.18,-73.95
57844.0,0.87,0.38,-1.01,-0.16,-0.96,0.22,-0.23,-73.19,-73.99
57910.0,0.89,0.39,-1.01,-0.16,-0.96,0.23,-0.22,-73.18,-73.95
57976.0,0.89,0.38,-1.02,-0.16,-0.96,0.23,-0.21,-73.17,-73.94
58044.0,0.88,0.37,-1.0,-0.16,-0.96,0.23,-0.21,-73.17,-73.94
58110.0,0.91,0.39,-1.02,-0.16,-0.96,0.22,-0.21,-73.17,-73.94
58176.0,0.95,0.4,-1.04,-0.16,-0.96,0.23,-0.2,-73.16,-73.92
58245.0,0.87,0.36,-1.04,-0.16,-0.96,0.24,-0.17,-73.13,-73.87
58310.0,0.79,0.33,-1.01,-0.15,-0.96,0.23,-0.19,-73.15,-73.91
58377.0,0.8,0.37,-0.96,-0.16,-0.96,0.22,-0.21,-73.17,-73.95
58443.0,0.89,0.35,-0.98,-0.16,-0.96,0.22,-0.22,-73.18,-73.98
58509.0,0.96,0.38,-1.05,-0.16,-0.96,0.22,-0.22,-73.18,-73.98
58577.0,0.98,0.44,-1.07,-0.16,-0.96,0.22,-0.23,-73.19,-74.01
58643.0,0.95,0.39,-1.05,-0.16,-0.96,0.23,-0.2,-73.16,-73.94
58710.0,0.82,0.38,-0.99,-0.16,-0.96,0.23,-0.18,-73.14,-73.9
58777.0,0.79,0.31,-0.98,-0.16,-0.96,0.22,-0.23,-73.19,-73.99
58844.0,0.87,0.35,-1.01,-0.16,-0.96,0.22,-0.24,-73.2,-74.03
58909.0,0.91,0.33,-1.02,-0.16,-0.96,0.23,-0.22,-73.19,-73.98
58978.0,0.89,0.35,-1.02,-0.16,-0.96,0.22,-0.25,-73.21,-74.05
59043.0,0.92,0.4,-1.02,-0.16,-0.96,0.23,-0.25,-73.21,-74.05
59110.0,0.89,0.43,-1.05,-0.16,-0.96,0.22,-0.26,-73.22,-74.05
59177.0,0.86,0.36,-1.04,-0.16,-0.96,0.22,-0.26,-73.22,-74.05
59244.0,0.85,0.38,-1.02,-0.16,-0.96,0.23,-0.26,-73.22,-74.04
59310.0,0.85,0.38,-1.02,-0.16,-0.96,0.22,-0.25,-73.21,-74.02
59378.0,0.85,0.35,-1.04,-0.16,-0.96,0.22,-0.26,-73.22,-74.04
59444.0,0.89,0.37,-1.05,-0.16,-0.96,0.23,-0.26,-73.22,-74.02
59510.0,0.9,0.37,-1.02,-0.16,-0.96,0.22,-0.27,-73.23,-74.06
59578.0,0.89,0.39,-1.01,-0.16,-0.96,0.22,-0.27,-73.23,-74.06
59644.0,0.88,0.35,-1.01,-0.16,-0.96,0.23,-0.26,-73.22,-74.03
59711.0,0.86,0.37,-1.01,-0.16,-0.96,0.22,-0.27,-73.23,-74.03
59779.0,0.86,0.38,-1.01,-0.16,-0.96,0.22,-0.28,-73.24,-74.05
59845.0,0.88,0.37,-0.98,-0.16,-0.96,0.22,-0.28,-73.24,-74.07
59911.0,0.88,0.36,-1.02,-0.16,-0.96,0.23,-0.27,-73.23,-74.04
59977.0,0.89,0.37,-1.03,-0.16,-0.96,0.23,-0.26,-73.22,-74.01
60044.0,0.86,0.34,-1.0,-0.16,-0.96,0.23,-0.26,-73.22,-74.0
60111.0,0.84,0.34,-1.0,-0.16,-0.96,0.22,-0.27,-73.23,-74.01
60177.0,0.84,0.33,-1.02,-0.16,-0.96,0.22,-0.29,-73.25,-74.06
60243.0,0.84,0.34,-0.99,-0.16,-0.96,0.22,-0.3,-73.26,-74.07
60311.0,0.81,0.3,-0.95,-0.15,-0.96,0.22,-0.32,-73.28,-74.12
60378.0,0.7,0.35,-1.01,-0.17,-0.96,0.23,-0.31,-73.27,-74.06
60444.0,0.69,0.27,-1.08,-0.17,-0.96,0.21,-0.33,-73.29,-74.1
60512.0,0.83,0.28,-1.15,-0.16,-0.96,0.21,-0.35,-73.31,-74.14
60578.0,0.82,0.21,-1.01,-0.15,-0.96,0.23,-0.34,-73.3,-74.11
60644.0,0.68,0.24,-0.88,-0.16,-0.97,0.23,-0.34,-73.3,-74.07
60711.0,0.42,0.16,-1.05,-0.17,-0.96,0.21,-0.39,-73.35,-74.17
60778.0,0.71,-0.14,-1.15,-0.16,-0.97,0.21,-0.45,-73.41,-74.29
60844.0,0.89,0.08,-1.27,-0.16,-0.96,0.21,-0.48,-73.44,-74.34
60911.0,1.04,0.15,-1.24,-0.15,-0.95,0.18,-0.59,-73.56,-74.61
60978.0,1.27,0.42,-1.23,-0.14,-0.97,0.23,-0.57,-73.53,-74.55
61043.0,1.24,0.56,-1.44,-0.15,-0.97,0.25,-0.49,-73.45,-74.36
61110.0,1.14,0.42,-1.31,-0.14,-0.99,0.23,-0.53,-73.49,-74.48
61175.0,0.86,-0.39,-1.02,-0.13,-0.99,0.24,-0.57,-73.53,-74.54
61243.0,1.01,0.96,-1.38,-0.1,-0.91,0.22,-0.61,-73.57,-74.63
61309.0,0.82,-0.29,-1.33,-0.2,-0.98,0.25,-0.44,-73.4,-74.2
61375.0,0.24,-0.32,-1.07,-0.13,-1.0,0.24,-0.53,-73.49,-74.35
61443.0,0.76,-0.05,-1.02,-0.13,-0.98,0.21,-0.64,-73.6,-74.58
61509.0,1.18,0.25,-1.27,-0.1,-0.96,0.21,-0.73,-73.69,-74.8
61575.0,1.08,-0.11,-1.7,-0.11,-0.98,0.23,-0.8,-73.76,-74.94
61641.0,1.08,-0.3,-2.05,-0.09,-1.01,0.25,-0.84,-73.8,-75.0
61707.0,1.02,-0.37,-2.89,-0.03,-0.99,0.24,-0.93,-73.89,-75.19
61774.0,0.95,-0.55,-4.16,-0.01,-0.98,0.23,-1.05,-74.01,-75.42
61840.0,0.79,-0.56,-6.17,0.05,-0.99,0.23,-1.19,-74.15,-75.67
61906.0,0.57,-1.24,-7.39,0.06,-1.02,0.24,-1.32,-74.28,-75.86
61974.0,0.19,-0.39,-8.07,0.1,-0.99,0.23,-1.42,-74.38,-75.94
62041.0,0.34,-0.14,-9.13,0.18,-0.96,0.21,-1.48,-74.32,-75.67
62106.0,0.64,0.01,-10.18,0.27,-0.95,0.19,-1.75,-74.04,-74.95
62173.0,0.69,0.29,-11.05,0.36,-0.92,0.19,-2.34,-73.46,-73.54
62238.0,0.82,-0.2,-11.5,0.41,-0.9,0.2,-3.11,-72.69,-71.82
62306.0,0.65,-0.69,-11.09,0.46,-0.89,0.18,-3.97,-71.83,-69.98
62372.0,0.62,-1.16,-9.65,0.47,-0.84,0.19,-4.92,-70.88,-68.03
62438.0,0.62,-1.05,-7.85,0.53,-0.81,0.19,-6.07,-69.73,-65.73
62507.0,0.85,-0.5,-6.53,0.62,-0.74,0.2,-7.58,-68.22,-62.71
62572.0,0.89,-0.44,-6.56,0.72,-0.68,0.16,-9.42,-66.38,-59.09
62639.0,0.46,-1.68,-6.58,0.75,-0.65,0.15,-11.27,-64.52,-55.63
62706.0,0.31,-1.55,-7.11,0.77,-0.61,0.15,-13.15,-62.65,-52.24
62773.0,0.31,-1.92,-7.07,0.82,-0.6,0.12,-15.06,-60.73,-48.91
62838.0,0.64,-1.37,-7.15,0.85,-0.58,0.13,-16.99,-58.8,-45.77
62905.0,0.84,-0.73,-7.52,0.88,-0.5,0.12,-19.1,-56.69,-42.32
62970.0,0.37,-0.18,-8.55,0.94,-0.43,0.09,-21.38,-54.41,-38.62
63039.0,0.13,-1.04,-7.82,0.94,-0.41,0.09,-23.57,-52.23,-35.22
63105.0,0.47,-0.7,-5.66,0.88,-0.34,0.07,-25.78,-50.02,-31.91
63171.0,0.27,-1.84,-4.94,0.94,-0.26,0.04,-28.16,-47.63,-28.31
63239.0,0.57,-0.54,-6.97,0.97,-0.26,0.07,-30.42,-45.37,-25.02
63305.0,0.9,1.0,-3.69,1.03,-0.22,0.03,-32.69,-43.1,-21.79
63372.0,1.15,-0.16,-3.54,0.94,-0.16,0.04,-34.96,-40.83,-18.72
63439.0,1.36,0.93,-4.79,0.97,-0.16,0.03,-37.08,-38.72,-15.99
63505.0,1.07,-0.21,-5.41,1.0,-0.11,0.03,-39.26,-36.53,-13.18
63571.0,1.34,-0.56,-6.11,0.93,-0.05,-0.0,-41.51,-34.29,-10.34
63639.0,1.24,0.76,-3.48,0.98,-0.04,-0.02,-43.67,-32.13,-7.71
63706.0,1.0,-0.95,-0.95,0.98,-0.03,-0.01,-45.74,-30.06,-5.34
63771.0,1.03,-0.87,-0.98,0.97,-0.01,-0.0,-47.72,-28.08,-3.28
63840.0,1.07,-1.11,-0.36,0.98,-0.01,-0.02,-49.56,-26.24,-1.48
63905.0,0.61,-2.32,0.39,1.0,-0.02,-0.03,-51.26,-24.54,-0.03
63972.0,0.92,0.02,-0.39,1.01,-0.05,-0.0,-52.71,-23.09,0.84
64039.0,1.04,0.47,-0.82,1.01,-0.04,-0.04,-54.09,-21.71,1.68
64106.0,0.69,0.61,-0.37,0.97,-0.02,-0.06,-55.49,-20.3,2.61
64172.0,0.68,-0.1,-0.37,1.05,-0.07,-0.05,-56.59,-19.21,2.8
64238.0,0.73,0.57,-0.85,1.03,-0.07,-0.02,-57.62,-18.18,3.02
64304.0,0.53,0.18,-0.93,1.01,-0.04,-0.04,-58.69,-17.1,3.37
64371.0,0.82,0.02,-0.69,0.99,-0.06,-0.03,-59.59,-16.2,3.47
64438.0,0.86,0.6,-0.9,1.0,-0.05,-0.04,-60.47,-15.33,3.61
64503.0,0.78,0.18,-0.82,0.99,-0.05,-0.02,-61.27,-14.52,3.59
64571.0,0.71,-0.09,-0.56,1.0,-0.05,-0.04,-62.02,-13.77,3.6
64637.0,0.74,0.25,-0.89,1.02,-0.05,-0.03,-62.75,-13.05,3.63
64703.0,1.02,0.71,-1.28,1.0,-0.07,-0.03,-63.32,-12.47,3.36
64770.0,0.86,0.14,-1.0,1.01,-0.07,-0.04,-63.87,-11.92,3.16
64835.0,0.87,0.47,-1.01,0.99,-0.05,-0.04,-64.44,-11.35,3.04
64904.0,0.89,0.24,-1.01,0.98,-0.06,-0.05,-64.92,-10.88,2.83
64969.0,0.95,0.32,-0.99,1.03,-0.07,-0.04,-65.33,-10.46,2.55
65036.0,1.11,0.47,-1.1,0.98,-0.06,-0.05,-65.74,-10.06,2.3
65103.0,0.62,-0.32,-0.86,0.99,-0.06,-0.06,-66.18,-9.61,2.2
65170.0,0.9,0.51,-0.91,1.02,-0.08,-0.04,-66.48,-9.32,1.84
65235.0,1.29,0.06,-0.87,0.92,-0.05,-0.03,-66.83,-8.96,1.68
65303.0,1.09,-0.05,-0.01,0.93,-0.05,-0.09,-67.17,-8.63,1.56
65370.0,0.85,1.12,0.34,1.05,-0.1,-0.08,-67.32,-8.48,1.03
65435.0,0.76,-1.34,1.27,0.94,-0.11,-0.06,-67.41,-8.39,0.37
65503.0,0.48,-1.15,3.66,1.01,-0.12,-0.12,-67.49,-8.3,-0.19
65567.0,1.03,0.34,2.14,0.97,-0.21,-0.06,-67.14,-8.65,-1.67
65635.0,0.89,-1.45,5.02,0.88,-0.2,-0.11,-66.79,-9.01,-3.07
65701.0,0.68,1.27,5.07,0.87,-0.24,-0.07,-66.28,-9.52,-4.7
65768.0,0.81,0.86,6.31,0.86,-0.35,-0.05,-65.35,-10.45,-7.21
65836.0,1.5,3.09,7.55,0.85,-0.47,-0.02,-63.96,-11.84,-10.55
65902.0,1.66,4.96,7.63,0.79,-0.47,0.03,-62.53,-13.27,-13.78
65968.0,1.97,4.63,7.73,0.86,-0.59,0.04,-60.92,-14.88,-17.2
66035.0,2.12,3.39,7.88,0.86,-0.71,0.06,-59.06,-16.73,-20.98
66102.0,1.62,3.27,8.21,0.74,-0.64,0.07,-57.27,-18.53,-24.46
66168.0,1.24,2.66,8.47,0.73,-0.78,0.1,-55.24,-20.55,-28.33
66236.0,1.36,2.35,8.56,0.55,-0.88,0.19,-52.83,-22.96,-33.16
66301.0,2.33,2.55,8.52,0.54,-0.86,0.13,-50.59,-25.21,-37.44
66368.0,0.99,2.06,8.68,0.5,-0.85,0.13,-48.29,-27.51,-41.46
66436.0,1.27,2.56,6.98,0.38,-0.91,0.15,-45.69,-30.11,-46.07
66500.0,1.4,1.21,5.44,0.4,-0.86,0.17,-43.45,-32.34,-49.61
66568.0,2.24,3.61,3.37,0.3,-1.03,0.17,-40.86,-34.93,-53.91
66634.0,0.89,0.54,4.48,0.17,-0.97,0.22,-38.17,-37.63,-58.19
66700.0,0.48,0.99,4.45,0.16,-0.96,0.17,-35.48,-40.31,-62.19
66767.0,0.85,0.9,3.4,0.15,-0.96,0.17,-32.99,-42.8,-65.69
66834.0,0.47,0.76,2.53,0.12,-1.0,0.18,-30.56,-45.23,-68.92
66899.0,0.26,0.06,1.92,0.07,-1.02,0.2,-28.25,-47.54,-71.71
66967.0,0.14,-0.06,2.12,0.01,-1.0,0.17,-25.96,-49.83,-74.47
67032.0,0.53,0.31,2.05,-0.0,-0.96,0.16,-23.83,-51.96,-76.81
67099.0,1.14,1.72,1.72,-0.01,-0.94,0.15,-21.86,-53.94,-78.84
67165.0,1.08,1.07,1.76,-0.05,-0.98,0.15,-20.05,-55.75,-80.51
67231.0,0.89,1.53,1.34,-0.08,-0.99,0.18,-18.5,-57.29,-81.5
67299.0,0.51,1.28,0.98,-0.07,-0.98,0.15,-16.94,-58.86,-82.65
67362.0,0.6,0.79,0.02,-0.07,-1.0,0.15,-15.47,-60.33,-83.6
67430.0,0.57,0.15,-0.58,-0.1,-1.01,0.18,-14.22,-61.58,-84.1
67496.0,1.11,0.66,-1.08,-0.15,-1.04,0.18,-13.18,-62.61,-84.28
67562.0,0.94,0.36,-0.73,-0.11,-0.98,0.16,-12.12,-63.68,-84.55
67630.0,1.07,0.61,-0.97,-0.14,-0.96,0.15,-11.17,-64.63,-84.7
67696.0,0.83,0.12,-0.85,-0.12,-1.0,0.16,-10.23,-65.57,-84.92
67762.0,0.76,0.14,-0.81,-0.12,-0.99,0.17,-9.38,-66.41,-84.92
67829.0,0.75,-0.45,-0.72,-0.14,-0.97,0.14,-8.59,-67.2,-84.95
67894.0,0.85,-0.56,-0.76,-0.14,-0.99,0.17,-7.94,-67.86,-84.73
67961.0,1.12,0.51,-1.23,-0.13,-0.99,0.12,-7.18,-68.62,-84.89
68027.0,1.44,0.91,-1.27,-0.13,-0.98,0.13,-6.5,-69.3,-84.97
68093.0,1.56,0.53,-1.06,-0.13,-0.97,0.18,-6.05,-69.74,-84.54
68161.0,1.1,0.55,-0.99,-0.12,-0.99,0.2,-5.64,-70.15,-84.13
68226.0,0.73,0.37,-0.96,-0.13,-0.98,0.18,-5.21,-70.58,-83.8
68293.0,0.66,0.46,-0.98,-0.14,-0.97,0.16,-4.74,-71.05,-83.64
68361.0,0.86,0.37,-0.98,-0.14,-0.98,0.15,-4.31,-71.48,-83.49
68425.0,0.89,0.37,-1.03,-0.14,-0.97,0.17,-3.96,-71.84,-83.22
68493.0,0.81,0.38,-0.99,-0.13,-0.98,0.17,-3.59,-72.2,-83.02
68558.0,0.82,0.35,-1.02,-0.13,-0.98,0.16,-3.25,-72.55,-82.87
68624.0,0.86,0.37,-1.05,-0.13,-0.98,0.17,-2.94,-72.86,-82.64
68692.0,0.9,0.37,-1.05,-0.13,-0.98,0.17,-2.67,-73.13,-82.43
68756.0,0.88,0.4,-1.04,-0.13,-0.98,0.17,-2.39,-73.4,-82.25
68824.0,0.85,0.4,-1.05,-0.13,-0.97,0.17,-2.15,-73.65,-82.06
68890.0,0.87,0.42,-1.05,-0.13,-0.97,0.16,-1.9,-73.9,-81.92
68956.0,0.85,0.36,-1.05,-0.13,-0.98,0.17,-1.68,-74.12,-81.75
69024.0,0.82,0.37,-0.99,-0.13,-0.98,0.17,-1.48,-74.32,-81.58
69090.0,0.83,0.37,-1.02,-0.13,-0.97,0.16,-1.28,-74.52,-81.45
69156.0,0.88,0.37,-1.03,-0.13,-0.98,0.16,-1.1,-74.7,-81.29
69224.0,0.9,0.4,-1.04,-0.13,-0.98,0.17,-0.94,-74.86,-81.14
69288.0,0.88,0.39,-1.02,-0.13,-0.97,0.17,-0.79,-75.0,-80.98
69356.0,0.89,0.29,-0.99,-0.12,-0.98,0.17,-0.64,-75.16,-80.87
69424.0,0.79,0.18,-0.94,-0.13,-0.99,0.17,-0.53,-75.27,-80.67
69488.0,0.6,0.2,-1.02,-0.15,-0.99,0.16,-0.4,-75.4,-80.53
69556.0,0.73,0.5,-1.27,-0.13,-0.98,0.14,-0.21,-75.59,-80.57
69621.0,1.27,0.38,-1.13,-0.12,-0.97,0.14,-0.05,-75.75,-80.63
69688.0,1.02,0.52,-1.17,-0.11,-1.0,0.18,0.06,-75.86,-80.51
69755.0,1.19,0.46,-1.18,-0.13,-0.96,0.19,0.04,-75.84,-80.16
69819.0,1.12,0.5,-1.37,-0.13,-0.99,0.18,0.08,-75.88,-79.97
69886.0,1.24,0.72,-1.31,-0.11,-1.0,0.18,0.16,-75.96,-79.89
69953.0,1.21,-0.21,-1.18,-0.09,-0.98,0.17,0.27,-76.07,-79.92
70019.0,1.17,0.21,-1.9,-0.07,-0.98,0.18,0.41,-76.2,-79.98
70086.0,0.76,-0.11,-2.94,-0.03,-0.99,0.17,0.63,-76.43,-80.24
70151.0,1.43,-0.21,-4.71,0.01,-0.98,0.19,0.75,-76.54,-80.29
70218.0,1.49,0.29,-6.69,0.06,-0.99,0.2,0.77,-76.57,-80.14
70286.0,1.78,1.37,-8.7,0.11,-1.02,0.19,0.76,-76.55,-79.95
70350.0,1.58,-0.69,-8.94,0.12,-1.06,0.2,0.72,-76.52,-79.69
70418.0,0.98,-0.63,-8.34,0.13,-1.02,0.21,0.64,-76.44,-79.31
70483.0,1.29,-0.87,-7.81,0.25,-0.92,0.17,0.24,-76.04,-78.25
70550.0,1.38,-1.41,-8.53,0.32,-0.87,0.19,-0.47,-75.33,-76.53
70618.0,1.66,-0.65,-9.73,0.43,-0.88,0.19,-1.51,-74.28,-74.17
70682.0,1.44,-1.74,-10.06,0.48,-0.86,0.2,-2.68,-73.11,-71.63
70750.0,0.95,-1.05,-10.34,0.51,-0.83,0.19,-3.89,-71.9,-69.11
70818.0,1.18,-1.28,-10.3,0.6,-0.82,0.19,-5.32,-70.48,-66.24
70882.0,0.85,-1.53,-10.0,0.66,-0.73,0.18,-7.03,-68.76,-62.82
70950.0,0.84,-1.72,-10.18,0.75,-0.69,0.15,-8.94,-66.85,-59.14
71018.0,1.01,-3.92,-10.4,0.8,-0.62,0.14,-11.06,-64.73,-55.15
71083.0,0.35,-4.68,-11.55,0.87,-0.53,0.1,-13.44,-62.36,-50.73
71150.0,-0.56,-6.94,-13.7,0.94,-0.56,0.11,-15.62,-60.18,-46.89
71219.0,0.38,-3.22,-11.38,0.83,-0.5,0.14,-17.7,-58.09,-43.51
71283.0,0.12,-0.69,-7.12,0.82,-0.25,-0.02,-20.58,-55.21,-38.41
71351.0,1.09,0.61,-8.26,0.85,-0.22,0.02,-23.51,-52.28,-33.51
71418.0,1.06,2.82,-6.4,0.98,-0.17,0.01,-26.55,-49.24,-28.54
71483.0,1.3,0.69,-3.81,1.0,-0.13,0.0,-29.4,-46.39,-24.02
71552.0,1.67,0.44,-2.5,0.96,-0.12,-0.01,-32.03,-43.76,-20.18
71619.0,1.03,-1.27,-1.15,0.94,-0.1,-0.02,-34.6,-41.19,-16.61
71684.0,0.85,-0.79,-0.66,0.97,-0.09,-0.02,-37.06,-38.73,-13.45
71752.0,0.82,0.48,-0.6,0.97,-0.09,-0.01,-39.34,-36.46,-10.8
71820.0,0.82,-0.16,-0.35,0.99,-0.1,0.0,-41.45,-34.35,-8.52
71884.0,0.9,0.38,-0.62,1.07,-0.1,-0.05,-43.43,-32.37,-6.59
71952.0,0.89,1.05,-1.08,1.03,-0.1,0.01,-45.25,-30.55,-5.03
72018.0,0.74,-0.16,-0.94,0.99,-0.09,0.0,-46.96,-28.84,-3.64
72084.0,0.91,0.22,-1.01,1.02,-0.1,-0.03,-48.54,-27.26,-2.59
72153.0,1.02,1.3,-1.3,0.99,-0.1,-0.03,-49.98,-25.82,-1.71
72217.0,0.98,0.27,-1.1,0.96,-0.09,-0.0,-51.35,-24.44,-0.97
72285.0,1.0,-0.01,-0.67,0.97,-0.1,-0.01,-52.57,-23.23,-0.5
72352.0,0.99,0.32,-0.93,1.02,-0.12,-0.03,-53.66,-22.13,-0.2
72417.0,0.95,0.55,-1.03,0.97,-0.12,-0.0,-54.67,-21.12,-0.04
72485.0,0.69,0.25,-0.72,0.98,-0.11,-0.04,-55.68,-20.11,0.19
72553.0,0.89,0.34,-0.82,1.01,-0.1,-0.02,-56.64,-19.16,0.43
72617.0,1.12,0.71,-1.2,1.01,-0.12,-0.01,-57.42,-18.38,0.33
72685.0,0.9,-0.09,-0.81,0.98,-0.11,-0.02,-58.21,-17.58,0.36
72753.0,0.79,-0.02,-0.79,1.0,-0.09,-0.03,-59.02,-16.78,0.5
72817.0,1.08,0.44,-1.02,1.02,-0.13,-0.04,-59.63,-16.17,0.26
72886.0,0.98,0.31,-1.18,0.98,-0.12,-0.0,-60.19,-15.61,0.0
72953.0,0.82,0.15,-0.88,0.98,-0.1,-0.03,-60.81,-14.98,-0.01
73018.0,0.84,0.6,-1.13,1.02,-0.12,-0.05,-61.35,-14.44,-0.18
73085.0,1.15,0.21,-1.1,0.98,-0.12,-0.01,-61.81,-13.99,-0.44
73154.0,0.94,0.61,-0.79,1.02,-0.11,-0.04,-62.29,-13.51,-0.56
73219.0,0.9,0.08,-0.94,0.99,-0.12,-0.01,-62.68,-13.12,-0.85
73286.0,0.95,0.48,-0.94,0.98,-0.11,-0.01,-63.07,-12.72,-1.05
73354.0,0.83,0.15,-0.33,1.01,-0.12,-0.03,-63.42,-12.38,-1.29
73418.0,0.93,0.37,0.01,0.96,-0.13,-0.03,-63.7,-12.1,-1.63
73487.0,0.6,-0.3,1.73,0.93,-0.12,-0.01,-63.98,-11.82,-1.94
73554.0,0.98,0.54,0.78,0.97,-0.16,-0.04,-64.08,-11.71,-2.55
73619.0,1.21,0.71,0.89,1.01,-0.22,-0.04,-63.97,-11.82,-3.57
73687.0,1.03,-0.16,3.37,0.93,-0.24,-0.03,-63.7,-12.09,-4.89
73751.0,0.89,0.36,4.85,0.89,-0.27,-0.03,-63.33,-12.47,-6.35
73819.0,0.92,0.76,5.51,0.93,-0.34,-0.06,-62.74,-13.06,-8.19
73886.0,1.39,0.89,3.5,0.93,-0.38,-0.01,-61.99,-13.81,-10.22
73951.0,1.36,3.81,6.57,0.91,-0.51,0.0,-60.83,-14.97,-13.08
74019.0,0.99,3.56,8.19,0.82,-0.53,0.06,-59.53,-16.27,-16.13
74087.0,1.41,6.73,7.98,0.79,-0.59,0.08,-58.01,-17.79,-19.47
74151.0,1.12,4.68,7.62,0.74,-0.69,0.09,-56.21,-19.59,-23.29
74219.0,0.44,3.33,8.29,0.72,-0.7,0.11,-54.54,-21.26,-26.72
74287.0,1.24,3.27,6.24,0.65,-0.79,0.2,-52.66,-23.14,-30.54
74351.0,-0.35,0.98,7.96,0.64,-0.82,0.17,-50.67,-25.12,-34.25
74419.0,-0.28,1.54,8.49,0.54,-0.87,0.14,-48.38,-27.42,-38.5
74487.0,1.16,0.44,8.24,0.43,-0.88,0.15,-45.99,-29.81,-42.92
74552.0,1.18,0.71,7.53,0.42,-0.91,0.16,-43.68,-32.12,-46.91
74619.0,0.06,-0.82,8.17,0.3,-1.0,0.13,-40.89,-34.9,-51.75
74684.0,0.76,-0.2,8.24,0.21,-0.95,0.16,-38.17,-37.63,-56.28
74752.0,1.24,1.39,7.71,0.16,-0.99,0.14,-35.41,-40.39,-60.74
74819.0,1.31,0.2,7.34,0.11,-0.96,0.17,-32.85,-42.94,-64.6
74884.0,1.05,2.37,6.61,-0.0,-0.98,0.12,-30.1,-45.7,-68.73
74951.0,1.07,0.83,5.39,0.0,-0.96,0.15,-27.67,-48.12,-71.95
75019.0,-0.3,1.37,3.65,0.04,-0.99,0.1,-25.14,-50.66,-75.27
75083.0,-1.22,0.92,0.98,-0.05,-0.95,0.15,-22.96,-52.83,-77.55
75151.0,0.78,0.4,-1.31,-0.16,-1.22,0.18,-21.2,-54.6,-79.05
75215.0,1.03,0.82,-0.85,-0.2,-0.92,0.09,-19.73,-56.07,-79.94
75283.0,1.56,-0.12,-0.67,-0.21,-0.95,0.11,-18.41,-57.39,-80.58
75351.0,1.62,0.69,-1.05,-0.16,-1.0,0.11,-16.99,-58.81,-81.6
75415.0,1.79,0.4,-1.18,-0.18,-0.98,0.15,-15.85,-59.95,-81.99
75483.0,1.64,0.64,-1.2,-0.17,-0.98,0.16,-14.78,-61.01,-82.28
75550.0,1.65,0.71,-1.11,-0.17,-0.98,0.17,-13.81,-61.98,-82.47
75615.0,1.33,0.89,-1.1,-0.16,-0.97,0.15,-12.83,-62.96,-82.72
75682.0,1.34,0.53,-1.09,-0.18,-0.96,0.17,-12.02,-63.77,-82.65
75750.0,1.13,0.59,-1.12,-0.17,-0.97,0.19,-11.26,-64.53,-82.59
75814.0,0.76,0.54,-1.09,-0.17,-0.97,0.17,-10.5,-65.29,-82.56
75882.0,0.79,0.32,-1.03,-0.17,-0.97,0.16,-9.77,-66.03,-82.56
75947.0,0.79,0.35,-1.05,-0.16,-0.97,0.16,-9.06,-66.74,-82.59
76014.0,0.74,0.36,-1.02,-0.16,-0.97,0.16,-8.41,-67.38,-82.54
76083.0,0.86,0.39,-1.01,-0.16,-0.97,0.16,-7.8,-68.0,-82.53
76146.0,0.91,0.39,-1.02,-0.17,-0.97,0.16,-7.25,-68.55,-82.42
76215.0,0.87,0.4,-1.02,-0.17,-0.97,0.16,-6.73,-69.06,-82.3
76282.0,0.86,0.34,-1.04,-0.17,-0.97,0.16,-6.27,-69.53,-82.15
76347.0,0.88,0.38,-1.08,-0.16,-0.97,0.16,-5.81,-69.99,-82.04
76414.0,0.92,0.45,-1.1,-0.16,-0.97,0.16,-5.4,-70.4,-81.88
76479.0,0.97,0.43,-1.05,-0.16,-0.97,0.16,-5.0,-70.79,-81.75
76547.0,0.83,0.34,-0.92,-0.17,-0.97,0.18,-4.7,-71.1,-81.46
76614.0,0.51,0.35,-0.9,-0.16,-0.96,0.17,-4.36,-71.44,-81.3
76679.0,0.45,0.37,-0.89,-0.17,-0.97,0.16,-4.02,-71.78,-81.17
76746.0,0.6,0.42,-0.92,-0.17,-0.97,0.14,-3.68,-72.11,-81.1
76814.0,0.84,0.38,-0.96,-0.17,-0.97,0.15,-3.4,-72.39,-80.97
76878.0,1.02,0.37,-1.1,-0.17,-0.97,0.15,-3.14,-72.66,-80.85
76946.0,0.99,0.44,-1.16,-0.17,-0.97,0.16,-2.93,-72.87,-80.64
77015.0,1.02,0.37,-1.15,-0.16,-0.98,0.17,-2.72,-73.08,-80.49
77078.0,0.75,0.35,-0.88,-0.15,-0.96,0.16,-2.49,-73.31,-80.4
77147.0,0.71,0.21,-0.84,-0.18,-0.97,0.16,-2.34,-73.46,-80.13
77210.0,0.63,0.35,-1.02,-0.18,-0.98,0.15,-2.16,-73.64,-79.98
77279.0,0.81,1.16,-1.55,-0.17,-1.0,0.16,-1.97,-73.83,-79.9
77346.0,1.03,0.45,-1.58,-0.15,-0.96,0.17,-1.82,-73.97,-79.78
77410.0,1.24,-0.09,-0.89,-0.16,-0.98,0.16,-1.69,-74.1,-79.66
77477.0,1.19,-0.47,-0.64,-0.18,-1.0,0.17,-1.61,-74.18,-79.43
77546.0,1.51,-0.06,-1.02,-0.15,-0.98,0.17,-1.52,-74.28,-79.31
77609.0,1.93,0.53,-2.05,-0.1,-0.97,0.19,-1.4,-74.4,-79.31
77677.0,1.81,0.62,-4.11,-0.04,-1.03,0.19,-1.15,-74.65,-79.59
77742.0,1.88,2.92,-7.54,0.02,-1.01,0.2,-0.98,-74.82,-79.7
77809.0,1.86,2.81,-9.73,0.13,-0.99,0.17,-0.88,-74.92,-79.64
77877.0,1.63,0.27,-11.18,0.14,-0.95,0.2,-0.92,-74.88,-79.26
77941.0,1.36,-1.69,-12.47,0.31,-0.9,0.13,-1.38,-74.42,-77.91
78009.0,1.45,-4.65,-13.56,0.29,-0.93,0.2,-1.81,-73.99,-76.72
78077.0,0.8,-1.27,-14.43,0.36,-0.98,0.24,-2.41,-73.38,-75.17
78142.0,0.79,-1.74,-13.02,0.5,-0.92,0.19,-3.39,-72.41,-72.84
78210.0,0.93,-2.93,-11.32,0.53,-0.84,0.2,-4.58,-71.21,-70.15
78274.0,1.08,-1.58,-10.59,0.58,-0.76,0.16,-6.02,-69.78,-67.09
78342.0,1.23,-3.53,-10.18,0.71,-0.66,0.12,-8.02,-67.78,-62.89
78409.0,0.59,-4.66,-11.11,0.84,-0.67,0.1,-10.09,-65.7,-58.68
78474.0,0.17,-5.51,-11.64,0.83,-0.62,0.14,-12.17,-63.63,-54.67
78542.0,0.35,0.22,-11.18,0.85,-0.53,0.07,-14.42,-61.38,-50.48
78610.0,0.41,-1.67,-8.7,0.9,-0.43,0.06,-16.96,-58.84,-45.82
78674.0,0.82,-0.24,-7.65,0.92,-0.36,0.03,-19.61,-56.19,-41.15
78742.0,0.58,0.06,-7.06,0.9,-0.26,0.04,-22.45,-53.35,-36.26
78810.0,0.97,1.24,-6.67,0.96,-0.19,0.02,-25.44,-50.36,-31.23
78874.0,1.23,1.18,-6.15,1.03,-0.15,0.04,-28.46,-47.34,-26.41
78943.0,1.34,1.9,-4.69,1.03,-0.14,0.05,-31.13,-44.67,-22.35
79010.0,1.24,0.64,-2.52,0.89,-0.15,0.02,-33.51,-42.29,-19.1
79075.0,0.95,0.22,-1.31,0.9,-0.11,0.03,-35.92,-39.87,-15.9
79142.0,0.88,0.4,-0.34,0.96,-0.08,0.01,-38.33,-37.47,-12.81
79210.0,0.73,-0.37,0.16,1.04,-0.09,-0.0,-40.57,-35.23,-10.16
79275.0,1.0,0.46,-0.59,1.04,-0.11,0.03,-42.55,-33.24,-8.14
79343.0,0.77,-0.47,-0.72,1.0,-0.09,0.04,-44.49,-31.31,-6.25
79408.0,0.82,0.44,-0.92,1.02,-0.1,0.02,-46.23,-29.57,-4.81
79475.0,1.07,0.21,-1.27,1.02,-0.11,0.04,-47.8,-28.0,-3.7
79543.0,1.18,0.97,-1.22,0.98,-0.12,0.02,-49.18,-26.61,-2.91
79607.0,0.97,-0.31,-0.53,0.99,-0.12,0.02,-50.52,-25.28,-2.21
79676.0,0.93,0.43,-0.69,0.99,-0.12,0.01,-51.75,-24.04,-1.68
79744.0,0.82,-0.1,-0.52,0.97,-0.12,0.02,-52.91,-22.89,-1.24
79808.0,0.89,0.14,-0.53,0.98,-0.12,0.0,-53.97,-21.83,-0.94
79876.0,0.85,0.34,-0.56,1.0,-0.13,0.01,-54.93,-20.86,-0.79
79943.0,0.77,-0.31,-0.52,0.99,-0.13,0.02,-55.8,-19.99,-0.74
80008.0,0.92,0.11,-0.87,1.01,-0.13,0.0,-56.65,-19.15,-0.68
80076.0,0.74,0.18,-0.73,0.97,-0.12,0.0,-57.43,-18.37,-0.69
80144.0,0.77,0.13,-0.76,0.98,-0.14,0.01,-58.1,-17.7,-0.85
80208.0,0.99,0.24,-0.89,0.99,-0.15,0.02,-58.66,-17.14,-1.17
80276.0,0.92,0.57,-1.24,1.02,-0.14,-0.0,-59.26,-16.53,-1.3
80344.0,0.94,0.01,-1.0,0.95,-0.15,0.03,-59.72,-16.08,-1.67
80408.0,0.88,0.01,-0.43,0.95,-0.15,0.01,-60.17,-15.62,-1.97
80477.0,0.96,-0.47,0.01,1.02,-0.16,0.02,-60.6,-15.2,-2.26
80544.0,1.16,0.51,-0.6,1.06,-0.16,-0.02,-60.98,-14.82,-2.54
80609.0,0.95,0.07,0.73,0.98,-0.16,-0.01,-61.3,-14.5,-2.92
80676.0,0.66,-0.55,2.32,1.0,-0.22,0.01,-61.41,-14.39,-3.73
80745.0,1.31,0.85,4.01,0.91,-0.3,0.02,-61.06,-14.74,-5.47
80809.0,1.03,1.71,7.61,0.87,-0.32,-0.01,-60.61,-15.19,-7.32
80877.0,1.97,3.05,7.19,0.8,-0.41,0.06,-59.66,-16.14,-10.1
80944.0,1.22,5.15,8.85,0.78,-0.45,0.02,-58.61,-17.19,-12.98
81009.0,1.29,5.37,9.02,0.88,-0.58,0.08,-57.42,-18.38,-15.97
81078.0,0.81,3.44,7.97,0.78,-0.47,0.09,-56.48,-19.31,-18.23
81141.0,0.27,2.08,7.79,0.75,-0.66,0.14,-54.97,-20.83,-21.8
81210.0,-0.02,2.11,7.38,0.63,-0.8,0.19,-52.89,-22.91,-26.43
81277.0,-0.11,6.64,6.63,0.58,-0.8,0.21,-50.82,-24.98,-30.77
81342.0,0.63,7.1,7.45,0.62,-0.92,0.17,-48.76,-27.03,-34.89
81410.0,-0.13,0.27,9.98,0.5,-0.86,0.2,-46.61,-29.19,-38.96
81477.0,0.69,1.2,8.56,0.39,-0.85,0.19,-44.28,-31.52,-43.31
81542.0,0.03,1.45,7.69,0.33,-0.98,0.17,-41.64,-34.15,-48.11
81609.0,-1.41,-1.3,9.0,0.23,-1.01,0.17,-38.74,-37.05,-53.15
81678.0,-0.21,1.59,7.61,0.17,-1.03,0.11,-35.81,-39.98,-58.18
81741.0,-0.5,0.06,7.21,0.1,-0.94,0.16,-33.1,-42.7,-62.43
81809.0,-0.38,1.69,7.05,-0.03,-0.96,0.15,-30.39,-45.41,-66.51
81875.0,-0.32,1.63,5.59,0.02,-0.94,0.11,-27.72,-48.08,-70.36
81941.0,1.17,2.61,2.59,0.03,-0.92,0.16,-25.57,-50.23,-73.06
82010.0,3.06,-2.07,-0.87,-0.26,-1.29,0.27,-24.11,-51.69,-74.22
82073.0,0.51,-2.26,0.08,-0.14,-0.88,0.15,-22.39,-53.41,-75.81
82142.0,1.65,-0.21,-0.47,-0.2,-1.03,0.18,-20.94,-54.85,-76.89
82209.0,0.8,0.46,-1.13,-0.18,-0.95,0.13,-19.46,-56.34,-78.07
82273.0,1.03,0.56,-1.12,-0.14,-0.98,0.16,-18.04,-57.76,-79.13
82341.0,0.88,0.37,-0.9,-0.14,-0.97,0.16,-16.7,-59.09,-80.03
82407.0,0.79,0.33,-0.99,-0.16,-0.98,0.14,-15.45,-60.34,-80.77
82473.0,1.01,0.45,-1.18,-0.15,-0.98,0.14,-14.29,-61.51,-81.43
82541.0,1.15,0.53,-1.17,-0.15,-0.98,0.15,-13.22,-62.57,-81.9
82606.0,1.12,0.78,-1.09,-0.15,-0.98,0.16,-12.24,-63.55,-82.25
82673.0,1.27,0.73,-1.12,-0.15,-0.96,0.16,-11.37,-64.43,-82.43
82741.0,1.01,0.44,-1.08,-0.14,-0.97,0.18,-10.58,-65.22,-82.52
82805.0,0.85,0.23,-1.02,-0.15,-0.97,0.17,-9.83,-65.96,-82.52
82873.0,0.82,0.28,-1.06,-0.15,-0.97,0.16,-9.1,-66.7,-82.6
82938.0,0.92,0.5,-1.04,-0.15,-0.97,0.16,-8.4,-67.39,-82.66
83005.0,0.95,0.44,-0.98,-0.15,-0.96,0.16,-7.8,-68.0,-82.6
83073.0,0.97,0.29,-0.98,-0.15,-0.98,0.18,-7.26,-68.54,-82.46
83138.0,0.94,0.35,-0.95,-0.16,-0.97,0.17,-6.74,-69.06,-82.33
83205.0,0.95,0.37,-1.02,-0.15,-0.97,0.17,-6.25,-69.54,-82.23
83272.0,0.99,0.44,-1.07,-0.15,-0.98,0.17,-5.78,-70.02,-82.15
83337.0,1.02,0.27,-0.98,-0.14,-0.97,0.18,-5.36,-70.44,-81.99
83404.0,0.79,0.37,-0.9,-0.16,-0.97,0.17,-5.0,-70.8,-81.76
83471.0,0.81,0.51,-1.1,-0.17,-0.97,0.16,-4.65,-71.15,-81.56
83536.0,0.87,0.21,-1.19,-0.15,-0.98,0.18,-4.32,-71.47,-81.38
83604.0,0.76,0.32,-1.1,-0.16,-0.97,0.18,-4.04,-71.76,-81.13
83670.0,0.7,0.09,-1.1,-0.16,-0.94,0.19,-3.84,-71.96,-80.74
83736.0,1.83,-1.51,-1.15,-0.18,-1.02,0.26,-3.88,-71.91,-79.97
83804.0,2.24,1.4,-2.64,-0.04,-0.98,0.22,-3.63,-72.16,-79.97
83868.0,3.24,1.61,-5.1,0.04,-0.99,0.15,-3.2,-72.59,-80.51
83936.0,2.55,0.14,-8.08,0.09,-1.06,0.19,-2.93,-72.87,-80.61
84001.0,0.81,-0.28,-10.79,0.16,-0.98,0.2,-2.81,-72.99,-80.22
84068.0,0.68,-2.23,-13.18,0.27,-0.91,0.19,-3.06,-72.73,-79.0
84135.0,1.66,-4.01,-14.4,0.33,-0.91,0.23,-3.63,-72.16,-77.23
84202.0,3.0,-7.45,-14.24,0.31,-0.98,0.3,-4.23,-71.56,-75.64
84268.0,1.37,-2.31,-13.77,0.44,-1.0,0.27,-4.93,-70.87,-73.79
84335.0,0.02,-0.95,-12.26,0.55,-0.82,0.15,-6.01,-69.79,-71.04
84400.0,0.74,-2.09,-12.9,0.64,-0.7,0.14,-7.64,-68.16,-67.26
84468.0,0.11,-2.67,-13.37,0.72,-0.69,0.12,-9.38,-66.42,-63.39
84536.0,-0.08,-5.11,-12.63,0.8,-0.62,0.11,-11.39,-64.4,-59.08
84600.0,-0.78,-5.32,-12.87,0.92,-0.6,0.12,-13.55,-62.24,-54.63
84668.0,0.11,-1.13,-10.34,0.89,-0.47,0.11,-15.99,-59.81,-49.87
84737.0,0.79,-0.82,-9.25,0.89,-0.33,0.03,-18.78,-57.02,-44.56
84801.0,1.0,1.18,-9.32,0.88,-0.26,0.07,-21.67,-54.13,-39.31
84869.0,1.46,1.48,-8.05,1.01,-0.21,0.02,-24.74,-51.06,-33.96
84935.0,1.74,0.87,-5.86,0.98,-0.15,0.03,-27.82,-47.97,-28.82
85001.0,1.47,0.51,-3.05,0.93,-0.11,-0.01,-30.82,-44.98,-24.07
85069.0,0.98,-0.3,-1.39,0.82,-0.09,0.03,-33.57,-42.23,-20.04
85135.0,0.62,-1.1,0.11,0.86,-0.06,-0.0,-36.19,-39.61,-16.32
85201.0,1.26,0.36,0.68,1.01,-0.11,0.01,-38.46,-37.33,-13.42
85269.0,1.1,0.12,0.25,1.02,-0.12,0.0,-40.52,-35.27,-11.13
85336.0,0.41,-0.74,0.37,1.01,-0.1,0.0,-42.58,-33.22,-8.93
85402.0,0.44,-0.66,-0.37,1.08,-0.1,-0.0,-44.51,-31.29,-6.98
85470.0,0.95,0.24,-1.5,1.08,-0.12,0.01,-46.21,-29.58,-5.54
85536.0,1.29,0.91,-2.27,1.0,-0.13,0.02,-47.68,-28.12,-4.6
85602.0,1.04,-0.21,-1.63,0.97,-0.12,-0.0,-49.07,-26.73,-3.74
85670.0,0.89,0.76,-1.34,0.96,-0.11,-0.01,-50.44,-25.36,-2.92
85736.0,0.92,-0.49,-0.63,0.99,-0.1,0.01,-51.74,-24.05,-2.18
85803.0,1.58,0.66,-1.15,1.04,-0.07,0.05,-53.05,-22.74,-1.26
85870.0,1.53,-0.89,-1.37,0.98,-0.12,-0.05,-54.05,-21.74,-1.06
85937.0,0.98,0.82,-0.78,0.98,-0.1,-0.08,-55.12,-20.68,-0.66
86003.0,0.6,0.27,-0.76,1.01,-0.1,-0.02,-56.14,-19.65,-0.27
86071.0,1.1,0.4,-0.91,1.0,-0.12,0.0,-56.98,-18.82,-0.25
86137.0,1.14,-0.02,-0.74,0.99,-0.12,-0.05,-57.76,-18.04,-0.26
86203.0,0.91,0.69,-0.89,1.03,-0.1,-0.07,-58.56,-17.24,-0.11
86272.0,0.61,0.83,-1.22,1.0,-0.11,-0.03,-59.28,-16.51,-0.13
86337.0,0.57,0.02,-0.92,0.97,-0.12,-0.0,-59.93,-15.87,-0.26
86404.0,0.4,0.23,-0.95,1.01,-0.09,-0.03,-60.64,-15.16,-0.13
86471.0,0.95,0.59,-1.24,1.0,-0.11,-0.02,-61.22,-14.58,-0.22
86538.0,0.92,0.14,-0.89,0.96,-0.1,-0.03,-61.76,-14.04,-0.33
86604.0,0.63,0.56,-0.84,0.99,-0.09,-0.02,-62.35,-13.44,-0.24
86672.0,1.08,0.5,-0.9,1.0,-0.13,-0.02,-62.72,-13.08,-0.62
86738.0,1.06,0.16,-0.37,0.96,-0.12,-0.0,-63.05,-12.75,-0.99
86804.0,0.82,1.73,0.81,1.1,-0.12,-0.06,-63.47,-12.33,-1.08
86872.0,0.68,-1.65,6.66,1.01,-0.28,0.02,-63.2,-12.59,-2.76
86936.0,1.65,1.83,8.0,0.85,-0.24,-0.01,-62.87,-12.93,-4.35
87005.0,1.54,4.37,2.4,0.93,-0.29,0.01,-62.49,-13.31,-5.92
87070.0,1.64,2.38,5.11,0.92,-0.44,0.03,-61.52,-14.28,-8.73
87137.0,1.18,4.22,8.4,0.8,-0.5,0.11,-60.2,-15.6,-12.2
87204.0,1.48,4.98,6.73,0.76,-0.39,0.05,-59.31,-16.49,-14.4
87271.0,0.94,4.62,7.26,0.78,-0.61,0.1,-57.74,-18.05,-18.09
87337.0,0.03,2.4,8.53,0.73,-0.73,0.14,-55.9,-19.9,-22.29
87405.0,0.44,3.26,9.45,0.66,-0.67,0.13,-54.18,-21.61,-25.97
87471.0,0.53,3.08,9.59,0.59,-0.87,0.17,-51.89,-23.91,-30.8
87537.0,-0.27,1.96,11.81,0.5,-0.87,0.18,-49.45,-26.34,-35.63
87605.0,0.41,1.24,12.35,0.44,-0.91,0.18,-46.94,-28.85,-40.43
87671.0,0.56,1.76,12.21,0.36,-1.0,0.18,-44.22,-31.58,-45.49
87737.0,0.51,1.01,12.08,0.22,-1.0,0.2,-41.32,-34.47,-50.74
87804.0,0.83,2.18,10.83,0.14,-0.97,0.18,-38.39,-37.4,-55.8
87871.0,1.71,1.17,9.13,0.07,-0.97,0.17,-35.58,-40.21,-60.45
87937.0,1.7,1.8,7.08,-0.01,-0.99,0.18,-32.94,-42.85,-64.53
88003.0,1.69,1.73,5.08,-0.08,-0.99,0.24,-30.74,-45.05,-67.37
88069.0,1.05,3.18,1.92,-0.03,-0.91,0.18,-28.46,-47.34,-70.37
88136.0,0.03,2.34,-1.66,-0.08,-0.93,0.13,-26.12,-49.68,-73.29
88203.0,-0.38,-2.07,0.77,-0.08,-1.11,0.34,-24.49,-51.31,-74.47
88268.0,1.23,-0.7,-0.38,-0.29,-0.85,0.14,-23.3,-52.49,-74.86
88336.0,1.67,0.18,-0.53,-0.25,-0.96,0.19,-22.06,-53.74,-75.48
88402.0,0.73,0.85,-0.85,-0.2,-1.04,0.17,-20.54,-55.25,-76.74
88468.0,0.87,0.45,-0.96,-0.25,-0.92,0.16,-19.42,-56.38,-77.16
88535.0,1.11,0.36,-1.01,-0.22,-0.98,0.19,-18.27,-57.53,-77.69
88600.0,1.22,0.5,-1.11,-0.23,-0.95,0.18,-17.28,-58.52,-77.99
88669.0,1.27,0.63,-1.07,-0.22,-0.95,0.19,-16.36,-59.44,-78.18
88734.0,1.13,0.34,-1.02,-0.23,-0.94,0.21,-15.57,-60.22,-78.14
88801.0,0.98,0.49,-0.94,-0.23,-0.96,0.2,-14.78,-61.01,-78.22
88868.0,1.01,0.41,-0.94,-0.23,-0.96,0.19,-14.04,-61.76,-78.25
88934.0,1.06,0.49,-0.95,-0.23,-0.95,0.2,-13.39,-62.41,-78.14
89000.0,0.97,0.36,-0.92,-0.23,-0.95,0.21,-12.77,-63.03,-78.07
89066.0,0.91,0.34,-0.88,-0.24,-0.96,0.2,-12.19,-63.6,-77.92
89135.0,0.83,0.29,-0.85,-0.24,-0.94,0.2,-11.67,-64.13,-77.78
89200.0,0.79,0.32,-0.9,-0.24,-0.95,0.19,-11.16,-64.63,-77.66
89267.0,0.88,0.39,-0.98,-0.24,-0.95,0.2,-10.7,-65.1,-77.48
89332.0,0.89,0.41,-1.06,-0.24,-0.94,0.19,-10.27,-65.53,-77.33
89400.0,0.85,0.58,-1.08,-0.23,-0.95,0.2,-9.86,-65.94,-77.17
89466.0,0.91,0.49,-1.05,-0.24,-0.95,0.19,-9.49,-66.31,-77.0
89532.0,1.04,0.26,-1.08,-0.24,-0.96,0.18,-9.13,-66.66,-76.88
89601.0,1.26,0.27,-1.1,-0.23,-0.95,0.19,-8.81,-66.99,-76.73
89666.0,1.53,0.19,-0.95,-0.23,-0.95,0.2,-8.52,-67.27,-76.57
89733.0,1.66,-0.41,-0.76,-0.23,-0.95,0.23,-8.36,-67.43,-76.19
89798.0,1.24,-0.24,-0.61,-0.25,-0.93,0.24,-8.28,-67.52,-75.64
89866.0,0.89,-1.14,-0.18,-0.27,-0.93,0.26,-8.29,-67.5,-74.91
89932.0,0.56,8.34,-1.19,-0.27,-0.94,0.24,-8.22,-67.58,-74.43
89998.0,0.44,1.43,0.32,0.05,-0.89,0.07,-7.09,-68.71,-76.45
90064.0,1.72,-4.3,0.87,-0.24,-0.77,0.18,-6.97,-68.59,-75.59
90132.0,1.03,-0.63,0.37,-0.42,-1.02,0.34,-6.44,-68.07,-73.79
90199.0,0.37,0.87,1.21,-0.4,-0.94,0.26,-6.08,-67.7,-72.43
90264.0,0.99,1.76,-0.07,-0.36,-0.95,0.2,-5.93,-67.55,-71.75
90333.0,0.4,1.91,-1.68,-0.37,-0.89,0.19,-5.73,-67.35,-70.97
90398.0,1.31,1.54,-3.59,-0.37,-0.96,0.24,-5.51,-67.13,-70.26
90465.0,0.56,1.12,-4.91,-0.28,-0.97,0.26,-5.56,-67.18,-70.18
90532.0,-0.44,0.79,-5.08,-0.3,-0.92,0.19,-5.71,-67.33,-70.24
90599.0,-0.01,0.71,-5.08,-0.15,-0.94,0.19,-6.31,-67.93,-71.4
90664.0,0.77,0.39,-4.82,-0.1,-0.99,0.17,-7.02,-68.65,-72.85
90731.0,0.5,-0.48,-4.89,-0.2,-0.99,0.19,-7.41,-69.04,-73.41
90799.0,-1.62,0.69,-4.93,-0.0,-0.94,0.17,-8.25,-69.87,-74.81
90865.0,0.02,1.04,-4.18,-0.0,-0.94,0.12,-9.15,-70.77,-76.46
90931.0,-0.94,3.82,-4.56,0.12,-0.95,0.17,-9.67,-71.29,-77.01
90997.0,0.58,0.53,-2.69,0.09,-0.96,0.08,-10.46,-72.08,-78.36
91065.0,0.79,1.73,-1.89,0.06,-0.97,0.2,-10.81,-72.44,-78.64
91130.0,1.05,-0.45,-1.29,0.01,-1.0,0.11,-11.53,-73.15,-79.78
91197.0,0.76,0.62,-1.26,0.01,-0.98,0.2,-11.85,-73.48,-79.96
91265.0,0.89,-0.09,-0.39,-0.01,-1.0,0.13,-12.43,-74.06,-80.74
91331.0,1.0,0.63,-0.34,-0.0,-0.98,0.16,-12.85,-74.47,-81.12
91398.0,0.66,0.6,-0.41,-0.0,-0.98,0.15,-13.26,-74.89,-81.5
91463.0,0.55,0.42,0.02,-0.0,-0.98,0.14,-13.74,-75.36,-81.98
91531.0,1.15,0.58,-0.7,-0.1,-1.0,0.12,-14.08,-75.7,-82.23
91597.0,1.06,0.92,-1.53,-0.02,-0.98,0.13,-14.47,-76.09,-82.59
91664.0,1.1,0.8,-1.36,0.01,-0.98,0.15,-14.76,-76.38,-82.7
91731.0,1.02,0.5,-0.99,-0.03,-0.99,0.15,-15.04,-76.66,-82.83
91797.0,1.01,0.42,-1.11,-0.01,-0.99,0.15,-15.31,-76.93,-82.93
91864.0,1.04,0.3,-1.12,-0.02,-0.99,0.15,-15.55,-77.17,-82.98
91931.0,1.07,0.38,-1.05,-0.0,-0.98,0.17,-15.71,-77.33,-82.87
91998.0,1.02,0.5,-1.08,-0.01,-0.99,0.16,-15.9,-77.53,-82.89
92064.0,0.93,0.4,-1.15,-0.02,-0.98,0.15,-16.1,-77.73,-82.9
92130.0,0.85,0.28,-1.08,-0.01,-0.99,0.16,-16.26,-77.88,-82.83
92197.0,0.87,0.13,-0.99,-0.01,-0.98,0.16,-16.4,-78.02,-82.76
92264.0,0.97,0.31,-0.96,-0.02,-0.99,0.16,-16.55,-78.17,-82.73
92331.0,0.95,0.37,-1.05,-0.0,-0.99,0.15,-16.7,-78.32,-82.72
92398.0,0.95,0.22,-1.12,-0.02,-0.98,0.16,-16.79,-78.41,-82.6
92464.0,0.92,0.4,-1.23,-0.01,-0.98,0.16,-16.88,-78.5,-82.49
92530.0,0.88,0.4,-1.18,-0.01,-0.98,0.16,-16.97,-78.6,-82.4
92596.0,0.91,0.45,-1.05,-0.0,-0.99,0.17,-17.03,-78.65,-82.24
92664.0,0.93,0.27,-0.98,-0.01,-0.99,0.15,-17.14,-78.76,-82.25
92730.0,1.04,0.34,-1.1,-0.01,-0.99,0.17,-17.19,-78.82,-82.15
92796.0,1.04,0.31,-1.04,0.01,-0.99,0.16,-17.27,-78.89,-82.09
92864.0,0.98,0.42,-0.95,0.0,-0.98,0.16,-17.33,-78.95,-82.01
92930.0,0.98,0.34,-1.05,-0.01,-0.98,0.16,-17.4,-79.02,-81.98
92996.0,0.98,0.27,-0.99,-0.01,-0.98,0.17,-17.43,-79.05,-81.85
93062.0,0.95,0.27,-0.99,-0.01,-0.98,0.16,-17.47,-79.09,-81.77
93130.0,0.89,0.31,-1.02,0.0,-0.98,0.16,-17.51,-79.13,-81.71
93196.0,0.9,0.34,-1.01,-0.0,-0.98,0.17,-17.53,-79.15,-81.59
93262.0,0.9,-0.04,-0.73,0.01,-0.98,0.16,-17.57,-79.19,-81.55
93328.0,0.91,-0.18,-0.06,0.05,-0.98,0.16,-17.58,-79.2,-81.43
93396.0,1.15,0.0,1.56,0.11,-1.0,0.15,-17.53,-79.15,-81.21
93462.0,1.56,0.3,2.38,-0.05,-0.96,0.13,-17.61,-79.24,-81.37
93528.0,2.15,0.41,1.24,-0.15,-0.98,0.2,-17.25,-78.87,-80.5
93596.0,1.27,-0.16,1.24,-0.15,-0.95,0.2,-16.9,-78.52,-79.66
93662.0,0.31,1.13,1.41,-0.11,-0.92,0.19,-16.72,-78.35,-79.19
93728.0,3.58,-0.71,0.69,-0.21,-1.08,0.24,-16.17,-77.8,-78.15
93794.0,1.45,-0.06,0.18,-0.15,-0.98,0.16,-16.06,-77.68,-78.02
93860.0,1.93,-0.02,0.15,-0.19,-1.0,0.23,-15.65,-77.27,-77.21
93928.0,1.95,-0.24,0.53,-0.19,-0.99,0.22,-15.28,-76.91,-76.58
93995.0,1.8,0.66,1.03,-0.19,-0.97,0.19,-15.0,-76.63,-76.16
94060.0,1.32,-0.21,1.4,-0.19,-0.95,0.21,-14.71,-76.33,-75.67
94128.0,1.25,0.2,1.08,-0.2,-0.93,0.21,-14.4,-76.02,-75.14
94194.0,2.22,-0.19,0.81,-0.29,-0.98,0.25,-13.72,-75.34,-73.88
94261.0,1.4,-0.55,1.06,-0.25,-0.92,0.24,-13.23,-74.85,-73.04
94328.0,0.37,0.03,0.63,-0.2,-0.87,0.23,-12.92,-74.55,-72.58
94395.0,0.74,0.82,-0.49,-0.32,-0.92,0.31,-12.17,-73.79,-71.11
94461.0,0.35,1.77,-1.56,-0.33,-0.96,0.25,-11.64,-73.27,-70.22
94529.0,0.61,0.18,-1.72,-0.29,-0.96,0.24,-11.28,-72.9,-69.78
94596.0,-0.24,1.44,-1.47,-0.27,-0.87,0.19,-11.06,-72.69,-69.6
94661.0,0.91,-0.03,-1.31,-0.31,-0.94,0.2,-10.75,-72.37,-69.29
94730.0,1.26,0.24,-1.2,-0.29,-0.92,0.22,-10.4,-72.03,-68.95
94795.0,1.05,0.39,-1.44,-0.29,-0.94,0.21,-10.16,-71.78,-68.82
94862.0,1.36,0.24,-1.46,-0.3,-0.93,0.22,-9.85,-71.48,-68.55
94929.0,1.26,0.74,-1.55,-0.25,-0.93,0.24,-9.62,-71.24,-68.45
94996.0,0.65,0.68,-1.6,-0.27,-0.93,0.24,-9.4,-71.02,-68.29
95062.0,0.4,0.56,-1.4,-0.25,-0.93,0.22,-9.31,-70.93,-68.41
95130.0,0.56,0.66,-1.3,-0.27,-0.95,0.21,-9.22,-70.84,-68.52
95196.0,0.86,0.55,-1.4,-0.27,-0.94,0.19,-9.14,-70.76,-68.66
95262.0,1.15,0.66,-1.53,-0.25,-0.95,0.19,-9.12,-70.74,-68.95
95328.0,1.41,0.73,-1.21,-0.24,-0.93,0.22,-9.04,-70.66,-69.08
95394.0,1.42,0.62,-1.0,-0.25,-0.94,0.23,-8.92,-70.54,-69.09
95462.0,1.1,0.26,-0.97,-0.27,-0.93,0.23,-8.75,-70.37,-68.94
95528.0,0.9,0.41,-1.06,-0.26,-0.94,0.24,-8.64,-70.26,-68.91
95594.0,0.77,0.47,-0.97,-0.25,-0.93,0.23,-8.58,-70.2,-68.98
95663.0,0.68,0.53,-0.97,-0.26,-0.95,0.23,-8.52,-70.14,-69.02
95728.0,0.59,1.34,-1.33,-0.26,-0.96,0.22,-8.49,-70.11,-69.13
95795.0,0.89,0.48,-1.18,-0.26,-0.93,0.21,-8.44,-70.06,-69.19
95862.0,0.96,0.71,-1.16,-0.25,-0.95,0.21,-8.45,-70.07,-69.38
95929.0,0.97,0.58,-1.09,-0.25,-0.93,0.22,-8.4,-70.02,-69.41
95994.0,1.01,0.56,-1.09,-0.26,-0.94,0.22,-8.34,-69.97,-69.43
96062.0,0.89,0.47,-1.06,-0.25,-0.94,0.22,-8.31,-69.93,-69.49
96129.0,0.86,0.45,-1.0,-0.25,-0.94,0.22,-8.29,-69.91,-69.56
96194.0,0.82,0.46,-0.98,-0.26,-0.94,0.22,-8.27,-69.89,-69.61
96261.0,0.82,0.26,-0.98,-0.26,-0.94,0.22,-8.24,-69.86,-69.63
96327.0,0.79,0.22,-0.95,-0.25,-0.94,0.22,-8.24,-69.87,-69.73
96395.0,0.83,0.31,-0.94,-0.25,-0.94,0.22,-8.23,-69.85,-69.78
96460.0,0.79,0.16,-0.95,-0.26,-0.94,0.21,-8.21,-69.83,-69.8
96527.0,0.8,0.32,-0.97,-0.25,-0.94,0.2,-8.26,-69.88,-69.99
96594.0,0.64,-0.91,-0.63,-0.28,-0.95,0.21,-8.21,-69.83,-69.91
96661.0,0.08,0.37,-0.88,-0.24,-0.93,0.22,-8.26,-69.89,-70.03
96727.0,0.64,0.45,-0.96,-0.27,-0.92,0.24,-8.15,-69.78,-69.81
96795.0,0.73,0.21,-0.86,-0.27,-0.93,0.21,-8.1,-69.73,-69.74
96861.0,0.98,0.92,-1.14,-0.23,-0.94,0.19,-8.24,-69.86,-70.14
96927.0,0.95,0.25,-1.0,-0.26,-0.94,0.21,-8.22,-69.85,-70.16
96995.0,0.94,0.16,-0.96,-0.26,-0.94,0.21,-8.21,-69.83,-70.17
97060.0,0.79,0.21,-0.95,-0.26,-0.94,0.22,-8.18,-69.81,-70.14
97127.0,0.96,0.21,-0.96,-0.26,-0.94,0.2,-8.2,-69.83,-70.23
97195.0,0.8,0.31,-1.03,-0.26,-0.94,0.21,-8.18,-69.8,-70.19
97261.0,0.66,0.7,-1.08,-0.26,-0.94,0.19,-8.21,-69.83,-70.29
97327.0,0.82,0.27,-1.08,-0.26,-0.93,0.21,-8.19,-69.81,-70.25
97393.0,1.14,0.31,-1.07,-0.27,-0.93,0.22,-8.12,-69.74,-70.14
97459.0,1.2,0.4,-1.14,-0.25,-0.94,0.23,-8.08,-69.7,-70.1
97527.0,1.19,0.18,-0.96,-0.24,-0.93,0.23,-8.05,-69.67,-70.1
97593.0,1.18,-0.73,-0.69,-0.28,-0.94,0.22,-7.94,-69.56,-69.89
97659.0,1.25,-0.5,-0.94,-0.26,-0.96,0.22,-7.9,-69.53,-69.88
97727.0,0.85,-0.11,-0.86,-0.25,-0.93,0.21,-7.93,-69.55,-69.99
97794.0,1.15,0.1,-0.66,-0.27,-0.93,0.21,-7.88,-69.51,-69.93
97859.0,1.13,0.05,-0.65,-0.27,-0.92,0.24,-7.75,-69.37,-69.67
97927.0,1.14,-0.22,-0.21,-0.25,-0.92,0.24,-7.66,-69.28,-69.52
97993.0,1.8,0.76,-0.4,-0.16,-0.93,0.21,-7.88,-69.5,-70.18
98059.0,1.84,0.13,0.89,-0.26,-0.94,0.3,-7.6,-69.22,-69.61
98127.0,1.46,1.2,1.15,-0.26,-0.92,0.23,-7.51,-69.14,-69.5
98193.0,1.49,0.01,0.43,-0.42,-0.92,0.27,-6.88,-68.5,-68.12
98259.0,0.94,0.07,-0.61,-0.37,-0.92,0.3,-6.41,-68.03,-67.13
98326.0,0.25,-0.13,-1.82,-0.35,-0.92,0.27,-6.11,-67.74,-66.57
98392.0,0.73,0.4,-2.81,-0.41,-0.91,0.23,-5.72,-67.34,-65.84
98460.0,0.42,1.79,-3.7,-0.26,-0.92,0.27,-5.71,-67.34,-66.03
98526.0,0.85,1.84,-4.23,-0.26,-0.91,0.24,-5.75,-67.37,-66.33
98592.0,-0.23,1.58,-3.97,-0.22,-0.94,0.27,-5.93,-67.55,-66.86
98660.0,0.24,0.1,-3.84,-0.2,-0.95,0.25,-6.16,-67.79,-67.49
98726.0,0.37,-0.2,-4.3,-0.24,-0.97,0.23,-6.35,-67.97,-68.0
98792.0,0.36,-0.89,-4.99,-0.23,-0.99,0.25,-6.56,-68.19,-68.52
98861.0,-0.51,0.82,-5.69,-0.14,-0.97,0.2,-7.14,-68.76,-69.78
98926.0,-0.89,1.32,-5.22,-0.02,-0.94,0.2,-7.84,-69.46,-71.22
98993.0,-0.22,0.15,-5.07,0.06,-0.95,0.17,-8.53,-70.16,-72.63
99060.0,0.15,0.28,-3.5,0.12,-0.95,0.12,-9.19,-70.81,-73.91
99126.0,0.5,1.05,-3.49,0.01,-0.97,0.16,-9.84,-71.46,-75.14
99192.0,0.54,0.11,-2.14,0.09,-0.99,0.18,-10.29,-71.91,-75.81
99258.0,0.81,0.62,-1.4,0.12,-0.96,0.19,-10.59,-72.22,-76.18
99324.0,0.89,0.26,-0.53,0.05,-0.99,0.16,-11.13,-72.75,-77.07
99392.0,0.84,0.9,-0.15,0.12,-0.98,0.18,-11.41,-73.04,-77.34
99459.0,0.79,0.42,0.06,-0.02,-0.98,0.15,-11.95,-73.57,-78.2
99524.0,0.88,0.09,-0.83,-0.01,-0.99,0.15,-12.46,-74.08,-78.97
99593.0,0.85,0.5,-0.9,0.03,-0.97,0.17,-12.81,-74.44,-79.35
99658.0,1.08,0.01,-0.68,-0.04,-1.0,0.17,-13.12,-74.75,-79.65
99725.0,0.89,-0.17,-0.79,0.0,-0.98,0.18,-13.4,-75.02,-79.83
99792.0,0.96,0.05,-0.92,-0.02,-0.98,0.17,-13.71,-75.33,-80.15
99859.0,0.85,0.25,-1.18,-0.02,-0.99,0.16,-14.02,-75.64,-80.44
99924.0,0.94,0.24,-1.06,0.01,-0.99,0.17,-14.27,-75.89,-80.6
99993.0,0.84,0.33,-1.06,0.01,-0.98,0.18,-14.5,-76.12,-80.71
100059.0,0.87,0.36,-1.05,0.02,-0.98,0.17,-14.72,-76.34,-80.83
100125.0,0.97,0.37,-1.02,0.0,-0.99,0.16,-14.96,-76.59,-81.01
100193.0,0.92,0.27,-1.08,-0.02,-0.99,0.18,-15.13,-76.76,-81.03
100259.0,0.9,0.68,-1.4,0.01,-0.98,0.18,-15.29,-76.92,-81.05
100326.0,0.98,0.69,-1.09,0.05,-0.98,0.16,-15.48,-77.11,-81.14
100393.0,1.08,0.27,-0.89,0.01,-0.99,0.17,-15.63,-77.25,-81.17
100460.0,0.94,0.26,-0.98,0.0,-0.99,0.18,-15.74,-77.37,-81.12
100526.0,0.91,0.32,-1.06,0.01,-0.98,0.18,-15.84,-77.46,-81.04
100593.0,0.91,0.41,-1.05,0.01,-0.98,0.18,-15.94,-77.56,-80.99
100660.0,0.95,0.39,-1.02,0.02,-0.98,0.18,-16.04,-77.66,-80.96
100726.0,0.91,0.48,-1.02,0.01,-0.99,0.18,-16.13,-77.75,-80.92
100794.0,0.92,0.39,-1.11,0.01,-0.98,0.17,-16.23,-77.85,-80.91
100858.0,0.88,0.34,-0.95,0.02,-0.97,0.18,-16.28,-77.9,-80.8
100926.0,0.89,0.41,-0.7,0.02,-0.98,0.17,-16.39,-78.01,-80.85
100993.0,0.89,0.24,-1.05,-0.0,-0.98,0.17,-16.49,-78.12,-80.9
101059.0,1.0,0.29,-1.08,0.01,-0.98,0.18,-16.55,-78.17,-80.83
101127.0,0.95,0.14,-0.89,0.01,-0.98,0.19,-16.56,-78.18,-80.67
101192.0,1.0,0.14,-0.74,0.02,-0.98,0.18,-16.59,-78.21,-80.6
101259.0,0.98,0.58,0.75,0.17,-0.98,0.18,-16.81,-77.98,-79.91
101326.0,1.54,0.93,1.13,-0.1,-0.97,0.16,-16.86,-77.94,-79.78
101393.0,1.24,0.03,0.5,-0.02,-0.97,0.2,-16.91,-77.89,-79.59
101459.0,1.5,0.59,0.44,-0.01,-0.99,0.19,-16.9,-77.9,-79.57
101527.0,1.35,0.9,0.95,-0.02,-0.97,0.19,-16.92,-77.88,-79.51
101593.0,2.11,0.89,1.4,-0.01,-1.01,0.22,-16.77,-77.73,-79.2
101659.0,0.88,0.32,1.7,-0.13,-0.91,0.24,-16.39,-77.36,-78.26
101727.0,0.56,0.54,1.12,-0.13,-0.92,0.22,-16.15,-77.12,-77.68
101793.0,0.59,0.5,1.17,-0.07,-0.94,0.23,-16.01,-76.97,-77.36
101859.0,0.9,0.24,0.63,-0.2,-1.01,0.22,-15.73,-76.69,-76.76
101927.0,0.99,0.86,1.14,-0.24,-0.96,0.19,-15.34,-76.3,-75.95
101992.0,0.82,1.43,1.39,-0.16,-0.96,0.21,-15.16,-76.13,-75.68
102060.0,0.27,1.45,1.1,-0.2,-0.96,0.21,-14.95,-75.92,-75.28
102127.0,0.03,-0.02,0.64,-0.35,-0.96,0.2,-14.36,-75.33,-73.99
102193.0,0.21,-0.3,0.27,-0.29,-0.95,0.21,-13.94,-74.9,-73.17
102260.0,0.5,0.84,0.15,-0.27,-0.93,0.15,-13.67,-74.63,-72.79
102328.0,1.79,0.95,0.27,-0.2,-0.95,0.15,-13.6,-74.56,-73.02
102392.0,1.4,0.61,0.44,-0.31,-0.92,0.23,-13.01,-73.98,-71.96
102461.0,1.76,-0.89,0.18,-0.34,-0.95,0.2,-12.46,-73.43,-71.06
102529.0,0.92,-0.68,-0.52,-0.37,-0.92,0.21,-11.85,-72.81,-69.96
102593.0,0.57,0.05,-1.66,-0.4,-0.91,0.21,-11.16,-72.12,-68.72
102662.0,0.79,0.54,-1.97,-0.27,-0.93,0.21,-10.94,-71.9,-68.66
102729.0,0.89,0.85,-1.56,-0.26,-0.94,0.2,-10.79,-71.75,-68.74
102794.0,0.89,0.58,-1.44,-0.32,-0.91,0.23,-10.39,-71.35,-68.23
102861.0,0.79,0.66,-1.56,-0.3,-0.93,0.2,-10.16,-71.13,-68.12
102930.0,1.22,0.63,-1.45,-0.29,-0.93,0.18,-10.01,-70.98,-68.2
102994.0,1.27,0.82,-1.6,-0.3,-0.92,0.23,-9.69,-70.66,-67.88
103062.0,0.97,1.15,-1.49,-0.22,-0.93,0.25,-9.61,-70.57,-68.06
103130.0,0.4,0.47,-1.11,-0.27,-0.94,0.21,-9.53,-70.49,-68.18
103194.0,0.38,0.37,-1.05,-0.29,-0.94,0.19,-9.43,-70.39,-68.23
103263.0,0.71,0.47,-1.26,-0.29,-0.94,0.18,-9.38,-70.35,-68.41
103328.0,1.12,0.96,-1.31,-0.27,-0.95,0.17,-9.36,-70.32,-68.67
103395.0,1.31,0.84,-1.31,-0.27,-0.94,0.2,-9.26,-70.22,-68.72
103462.0,1.11,0.79,-1.22,-0.27,-0.94,0.22,-9.16,-70.12,-68.74
103529.0,0.86,0.68,-1.15,-0.27,-0.94,0.21,-9.1,-70.06,-68.82
103596.0,0.71,0.76,-1.15,-0.27,-0.94,0.2,-9.09,-70.06,-69.0
103663.0,0.77,0.56,-1.1,-0.27,-0.94,0.2,-9.06,-70.03,-69.1
103729.0,0.78,0.46,-1.11,-0.27,-0.94,0.19,-9.05,-70.02,-69.25
103795.0,0.74,0.55,-1.09,-0.27,-0.94,0.2,-9.02,-69.99,-69.31
103863.0,0.83,0.43,-1.0,-0.27,-0.94,0.19,-9.01,-69.98,-69.42
103929.0,0.82,0.42,-1.04,-0.28,-0.94,0.2,-8.97,-69.94,-69.46
103996.0,0.88,0.43,-1.05,-0.27,-0.94,0.19,-8.98,-69.94,-69.59
104064.0,0.95,0.48,-1.04,-0.27,-0.95,0.2,-8.96,-69.93,-69.67
104130.0,0.89,0.41,-1.03,-0.27,-0.95,0.2,-8.96,-69.93,-69.77
104196.0,0.84,0.4,-0.99,-0.27,-0.94,0.2,-8.96,-69.92,-69.84
104263.0,0.84,0.4,-0.96,-0.27,-0.94,0.19,-8.96,-69.93,-69.92
104328.0,0.85,0.38,-0.99,-0.27,-0.94,0.2,-8.94,-69.91,-69.94
104396.0,0.86,0.36,-1.01,-0.27,-0.94,0.19,-8.93,-69.89,-69.97
104464.0,0.88,0.27,-0.98,-0.27,-0.94,0.2,-8.91,-69.87,-69.99
104528.0,0.86,-0.04,-0.86,-0.27,-0.94,0.2,-8.91,-69.87,-70.05
104596.0,0.74,0.23,-0.92,-0.27,-0.94,0.19,-8.9,-69.86,-70.07
104665.0,0.87,0.31,-0.98,-0.28,-0.95,0.19,-8.88,-69.85,-70.08
104729.0,0.91,0.4,-1.05,-0.28,-0.94,0.19,-8.86,-69.82,-70.07
104797.0,0.89,0.31,-1.04,-0.27,-0.94,0.19,-8.86,-69.82,-70.12
104864.0,0.93,0.27,-1.03,-0.27,-0.94,0.19,-8.87,-69.83,-70.19
104929.0,1.16,0.23,-1.07,-0.27,-0.93,0.19,-8.83,-69.8,-70.17
104997.0,1.17,0.25,-1.09,-0.27,-0.94,0.2,-8.81,-69.78,-70.18
105065.0,1.24,0.14,-1.09,-0.27,-0.95,0.21,-8.76,-69.73,-70.13
105129.0,1.27,0.08,-0.98,-0.27,-0.95,0.21,-8.73,-69.69,-70.12
105197.0,1.15,0.11,-1.06,-0.27,-0.94,0.21,-8.7,-69.66,-70.1
105264.0,1.08,-0.02,-0.14,-0.29,-0.93,0.19,-8.61,-69.57,-69.93
105330.0,1.04,0.6,-0.28,-0.21,-0.95,0.2,-8.79,-69.75,-70.4
105398.0,1.02,0.32,-0.78,-0.32,-0.92,0.23,-8.53,-69.49,-69.81
105463.0,0.81,-0.88,-0.54,-0.3,-0.86,0.25,-8.21,-69.18,-69.1
105530.0,0.59,-1.6,-0.47,-0.21,-0.98,0.19,-8.5,-69.47,-69.84
105597.0,1.13,-1.41,1.95,-0.38,-0.96,0.22,-8.15,-69.12,-69.08
105664.0,0.44,-0.3,1.29,-0.39,-0.9,0.21,-7.76,-68.73,-68.21
105731.0,0.84,-0.44,0.04,-0.42,-0.92,0.21,-7.29,-68.26,-67.25
105798.0,1.04,0.15,-1.47,-0.39,-0.93,0.23,-6.93,-67.89,-66.6
105863.0,0.79,0.79,-3.1,-0.35,-0.94,0.19,-6.82,-67.79,-66.57
105930.0,0.79,1.33,-4.47,-0.37,-0.92,0.19,-6.61,-67.57,-66.27
105999.0,0.42,2.64,-5.72,-0.38,-0.92,0.21,-6.38,-67.35,-65.92
106063.0,0.37,2.52,-6.18,-0.14,-0.97,0.22,-6.9,-67.86,-67.31
106131.0,0.4,1.33,-6.64,-0.1,-0.95,0.19,-7.52,-68.49,-68.86
106199.0,0.2,-1.27,-6.12,-0.17,-0.97,0.24,-7.85,-68.81,-69.6
106263.0,-0.75,-0.85,-5.4,-0.05,-0.97,0.21,-8.48,-69.45,-70.93
106331.0,0.11,-0.49,-4.42,-0.01,-0.99,0.11,-9.47,-70.43,-73.07
106399.0,0.79,1.47,-2.93,0.05,-0.98,0.18,-10.03,-70.99,-74.16
106464.0,0.77,-0.08,-2.41,-0.14,-0.99,0.13,-10.56,-71.52,-75.12
106531.0,1.08,-0.13,-1.99,-0.08,-0.99,0.22,-10.84,-71.81,-75.48
106599.0,0.76,0.54,-1.87,0.09,-0.97,0.17,-11.3,-72.26,-76.22
106663.0,0.98,-0.04,-0.4,0.0,-0.99,0.2,-11.67,-72.63,-76.75
106732.0,0.58,0.38,-0.02,0.01,-0.99,0.18,-12.14,-73.11,-77.45
106800.0,0.64,0.4,-0.47,-0.06,-0.98,0.17,-12.57,-73.53,-78.04
106864.0,0.79,0.31,-1.03,-0.03,-0.98,0.16,-13.01,-73.97,-78.65
106932.0,0.81,0.68,-1.04,-0.02,-0.98,0.18,-13.35,-74.31,-79.01
107000.0,0.91,0.47,-0.95,0.01,-0.98,0.18,-13.66,-74.63,-79.33
107065.0,0.92,0.27,-0.92,-0.01,-0.98,0.19,-13.93,-74.9,-79.54
107132.0,0.76,0.1,-0.94,-0.01,-0.98,0.15,-14.31,-75.28,-80.0
107199.0,0.8,0.1,-1.09,-0.04,-0.98,0.17,-14.6,-75.57,-80.25
107265.0,0.98,0.01,-1.22,-0.01,-0.98,0.17,-14.88,-75.84,-80.47
107333.0,0.95,0.57,-1.4,-0.01,-0.98,0.18,-15.09,-76.06,-80.58
107399.0,0.85,0.71,-1.26,-0.01,-0.98,0.18,-15.28,-76.25,-80.63
107465.0,0.89,0.76,-1.27,0.01,-0.98,0.18,-15.48,-76.44,-80.69
107533.0,0.89,0.63,-1.23,-0.01,-0.98,0.17,-15.67,-76.63,-80.78
107597.0,0.88,0.4,-1.17,0.01,-0.99,0.17,-15.85,-76.81,-80.85
107666.0,0.86,0.4,-1.06,0.0,-0.98,0.18,-15.99,-76.96,-80.84
107734.0,0.82,0.39,-0.98,0.01,-0.99,0.17,-16.17,-77.14,-80.94
107798.0,0.83,0.4,-1.0,0.01,-0.98,0.17,-16.35,-77.32,-81.04
107866.0,0.85,0.32,-0.94,-0.0,-0.98,0.17,-16.5,-77.46,-81.07
107934.0,0.89,0.57,-1.02,-0.01,-0.98,0.17,-16.61,-77.58,-81.06
107999.0,0.84,0.46,-1.04,-0.0,-0.97,0.17,-16.76,-77.72,-81.11
108066.0,0.81,0.24,-0.9,-0.0,-0.98,0.17,-16.86,-77.82,-81.08
108134.0,0.89,0.11,-0.85,-0.0,-0.98,0.17,-16.95,-77.92,-81.05
108198.0,0.96,-0.1,-0.82,-0.01,-0.98,0.17,-17.05,-78.01,-81.05
108267.0,1.08,-0.16,-0.79,-0.01,-0.98,0.16,-17.17,-78.14,-81.13
108335.0,1.05,0.08,-0.77,-0.01,-0.98,0.18,-17.2,-78.17,-80.99
108399.0,1.04,0.12,-0.71,0.01,-0.98,0.17,-17.27,-78.23,-80.96
108467.0,0.89,0.37,0.27,0.03,-0.98,0.17,-17.33,-78.29,-80.9
108534.0,0.86,1.05,0.24,-0.06,-0.98,0.19,-17.27,-78.24,-80.59
108599.0,0.79,1.34,-0.18,-0.06,-0.98,0.19,-17.26,-78.22,-80.4
108667.0,0.98,0.85,-0.5,-0.07,-0.99,0.17,-17.27,-78.24,-80.31
108735.0,0.78,0.54,-0.6,-0.07,-0.97,0.19,-17.23,-78.19,-80.08
108800.0,0.67,-0.24,-0.62,-0.07,-0.98,0.15,-17.32,-78.29,-80.18
108867.0,0.99,-0.05,-0.76,-0.07,-0.99,0.18,-17.33,-78.29,-80.09
108935.0,0.96,-0.27,-0.4,-0.06,-0.97,0.19,-17.29,-78.25,-79.92
108999.0,1.02,-0.34,-0.13,-0.06,-0.97,0.16,-17.35,-78.31,-79.99
109067.0,1.05,-0.67,0.28,-0.04,-0.99,0.17,-17.41,-78.37,-80.07
109131.0,0.7,-0.91,0.5,-0.04,-0.97,0.19,-17.41,-78.37,-79.96
109199.0,1.27,-1.94,0.23,-0.13,-1.0,0.21,-17.16,-78.12,-79.34
109266.0,1.24,0.18,0.05,-0.14,-0.99,0.13,-17.16,-78.13,-79.36
109331.0,1.88,2.1,-0.11,-0.08,-0.97,0.16,-17.14,-78.1,-79.36
109400.0,1.38,1.84,0.85,-0.04,-0.94,0.18,-17.1,-78.06,-79.26
109467.0,1.78,1.44,1.51,-0.11,-0.99,0.22,-16.82,-77.79,-78.68
109532.0,1.98,1.6,1.15,-0.27,-1.01,0.16,-16.36,-77.32,-77.68
109599.0,2.16,0.06,1.27,-0.29,-0.94,0.22,-15.63,-76.6,-76.16
109668.0,0.86,0.04,1.33,-0.22,-0.94,0.25,-15.14,-76.11,-75.16
109732.0,0.37,0.39,0.8,-0.26,-0.94,0.27,-14.59,-75.55,-74.02
109800.0,1.75,-0.27,0.57,-0.28,-0.97,0.22,-14.08,-75.04,-73.17
109868.0,0.79,1.28,0.21,-0.23,-0.92,0.15,-13.9,-74.87,-73.05
109933.0,0.92,0.08,0.1,-0.3,-0.92,0.24,-13.34,-74.3,-72.03
110001.0,0.89,-0.08,-0.78,-0.41,-0.96,0.19,-12.63,-73.59,-70.71
110068.0,1.06,-0.82,-1.74,-0.35,-0.97,0.25,-12.05,-73.01,-69.77
110134.0,-0.12,0.3,-1.82,-0.19,-0.92,0.2,-12.08,-73.05,-70.21
110201.0,0.64,1.24,-1.39,-0.27,-0.92,0.18,-11.86,-72.83,-70.07
110269.0,1.05,1.11,-1.44,-0.25,-0.95,0.19,-11.7,-72.66,-70.08
110333.0,1.28,0.99,-1.49,-0.26,-0.93,0.19,-11.51,-72.48,-70.06
110402.0,1.97,1.15,-1.5,-0.24,-0.91,0.17,-11.35,-72.32,-70.13
110470.0,2.07,0.37,-1.67,-0.26,-0.94,0.26,-10.97,-71.93,-69.65
110534.0,1.13,-0.02,-1.41,-0.23,-0.94,0.29,-10.65,-71.62,-69.27
110603.0,0.05,0.49,-1.08,-0.24,-0.94,0.25,-10.53,-71.49,-69.23
110670.0,0.17,0.69,-1.02,-0.25,-0.94,0.21,-10.49,-71.46,-69.41
110735.0,0.43,0.68,-1.08,-0.25,-0.95,0.21,-10.44,-71.41,-69.55
110802.0,0.71,0.63,-1.09,-0.24,-0.94,0.21,-10.38,-71.35,-69.68
110871.0,0.89,0.37,-1.01,-0.25,-0.94,0.21,-10.31,-71.28,-69.77
110936.0,1.0,0.34,-1.05,-0.24,-0.94,0.22,-10.22,-71.19,-69.81
111003.0,0.9,0.44,-1.09,-0.24,-0.94,0.21,-10.16,-71.13,-69.9
111071.0,0.82,0.45,-1.08,-0.24,-0.94,0.22,-10.11,-71.08,-69.98
111136.0,0.85,0.47,-1.14,-0.24,-0.95,0.22,-10.05,-71.02,-70.02
111204.0,0.72,0.48,-1.1,-0.23,-0.94,0.21,-10.06,-71.03,-70.22
111271.0,0.8,0.34,-0.97,-0.24,-0.94,0.21,-10.04,-71.01,-70.32
111336.0,0.7,0.38,-0.96,-0.24,-0.95,0.22,-10.01,-70.97,-70.37
111405.0,0.66,0.37,-1.0,-0.24,-0.94,0.2,-10.0,-70.97,-70.47
111468.0,0.84,0.37,-1.01,-0.25,-0.94,0.19,-10.0,-70.97,-70.6
111537.0,0.98,0.41,-1.05,-0.24,-0.94,0.21,-9.97,-70.93,-70.63
111604.0,0.92,0.38,-1.0,-0.24,-0.94,0.21,-9.94,-70.9,-70.67
111669.0,0.73,0.35,-0.98,-0.25,-0.95,0.21,-9.9,-70.86,-70.66
111736.0,0.69,0.33,-0.97,-0.25,-0.94,0.19,-9.91,-70.88,-70.77
111805.0,0.87,0.42,-1.0,-0.25,-0.94,0.2,-9.89,-70.86,-70.81
111869.0,0.98,0.37,-1.03,-0.24,-0.94,0.2,-9.87,-70.83,-70.83
111937.0,0.95,0.4,-1.04,-0.25,-0.95,0.21,-9.84,-70.81,-70.86
112006.0,0.89,0.44,-1.1,-0.25,-0.95,0.2,-9.82,-70.79,-70.87
112070.0,0.88,0.31,-1.1,-0.24,-0.95,0.21,-9.82,-70.78,-70.93
112138.0,0.98,0.34,-1.11,-0.24,-0.94,0.19,-9.83,-70.8,-71.02
112205.0,1.14,0.4,-1.05,-0.24,-0.95,0.2,-9.83,-70.79,-71.09
112270.0,1.1,0.31,-1.03,-0.24,-0.93,0.22,-9.76,-70.73,-71.0
112337.0,1.0,0.13,-0.97,-0.24,-0.95,0.22,-9.72,-70.69,-70.96
112405.0,0.85,-0.18,-0.87,-0.25,-0.94,0.22,-9.67,-70.64,-70.89
112470.0,0.79,0.09,-0.76,-0.25,-0.94,0.2,-9.66,-70.63,-70.9
112537.0,0.85,-0.1,-0.36,-0.25,-0.94,0.21,-9.62,-70.58,-70.83
112606.0,1.15,-0.34,0.05,-0.24,-0.89,0.22,-9.51,-70.47,-70.66
112670.0,1.86,-4.33,1.04,-0.16,-0.94,0.39,-9.07,-70.03,-69.77
112738.0,-0.31,-0.92,2.03,-0.37,-0.94,0.15,-8.87,-69.83,-69.3
112802.0,1.44,1.4,1.6,-0.31,-0.95,0.16,-8.78,-69.74,-69.27
112870.0,1.73,1.25,-0.23,-0.43,-0.94,0.24,-8.16,-69.12,-68.02
112939.0,1.28,1.05,-2.33,-0.4,-0.96,0.23,-7.73,-68.7,-67.26
113003.0,0.79,1.81,-3.78,-0.33,-0.93,0.26,-7.5,-68.46,-66.94
113071.0,0.29,1.45,-4.34,-0.33,-0.92,0.23,-7.35,-68.32,-66.79
113138.0,0.07,0.61,-4.76,-0.24,-0.93,0.25,-7.43,-68.39,-67.14
113203.0,-0.21,-1.92,-4.35,-0.2,-0.95,0.21,-7.77,-68.73,-68.05
113271.0,0.31,-0.65,-5.02,-0.21,-0.95,0.16,-8.16,-69.12,-69.06
113339.0,0.1,-0.01,-5.63,-0.12,-0.93,0.17,-8.74,-69.71,-70.44
113403.0,0.29,2.95,-6.42,-0.11,-0.97,0.22,-9.16,-70.12,-71.36
113471.0,-0.83,2.05,-5.86,0.14,-0.9,0.22,-9.49,-70.46,-71.92
113540.0,1.33,1.02,-3.75,0.08,-1.01,0.16,-10.06,-71.03,-73.22
113604.0,0.7,0.15,-1.55,-0.04,-0.98,0.21,-10.48,-71.45,-74.01
113672.0,0.79,0.99,-1.68,0.08,-0.97,0.18,-10.93,-71.9,-74.85
113739.0,0.65,0.95,-1.1,-0.03,-0.98,0.17,-11.46,-72.42,-75.82
113804.0,0.63,0.04,-0.63,0.01,-0.98,0.16,-11.99,-72.96,-76.75
113872.0,0.89,0.98,-0.72,-0.0,-0.99,0.17,-12.44,-73.4,-77.45
113940.0,0.56,1.15,-1.04,-0.01,-0.98,0.17,-12.87,-73.83,-78.07
114004.0,0.91,0.91,-1.21,0.01,-0.99,0.15,-13.33,-74.3,-78.78
114072.0,0.95,0.13,-1.1,0.02,-0.98,0.17,-13.66,-74.62,-79.14
114141.0,1.11,-0.45,-0.92,-0.03,-0.99,0.18,-13.95,-74.92,-79.44
114205.0,1.11,-0.11,-0.93,-0.01,-0.98,0.17,-14.23,-75.2,-79.71
114273.0,1.03,0.15,-0.98,-0.01,-0.98,0.17,-14.51,-75.48,-79.97
114340.0,0.79,0.36,-1.13,-0.01,-0.98,0.19,-14.73,-75.69,-80.07
114405.0,0.85,0.76,-1.15,0.01,-0.99,0.18,-14.97,-75.93,-80.23
114473.0,0.88,0.84,-1.09,0.0,-0.98,0.17,-15.2,-76.17,-80.41
114541.0,0.89,0.68,-1.05,-0.0,-0.98,0.18,-15.39,-76.35,-80.48
114606.0,0.79,0.33,-1.0,-0.0,-0.98,0.19,-15.52,-76.48,-80.41
114673.0,0.85,0.04,-0.91,-0.02,-0.98,0.18,-15.68,-76.64,-80.45
114742.0,0.86,0.16,-1.01,-0.01,-0.98,0.17,-15.87,-76.84,-80.59
114806.0,0.87,0.37,-1.05,-0.01,-0.98,0.17,-16.07,-77.03,-80.73
114874.0,0.9,0.48,-1.02,0.01,-0.99,0.17,-16.22,-77.19,-80.8
114942.0,0.9,0.57,-1.03,0.01,-0.98,0.17,-16.38,-77.34,-80.87
115007.0,0.95,0.34,-0.93,0.01,-0.98,0.18,-16.49,-77.46,-80.85
115075.0,0.93,0.5,-1.03,-0.0,-0.99,0.17,-16.62,-77.59,-80.89
115141.0,0.87,0.45,-0.96,0.0,-0.98,0.17,-16.74,-77.7,-80.9
115207.0,0.93,0.44,-0.9,0.0,-0.98,0.17,-16.84,-77.81,-80.91
115275.0,0.96,0.59,-0.47,0.02,-0.99,0.18,-16.92,-77.89,-80.87
115340.0,0.78,0.68,-0.37,-0.03,-0.98,0.18,-17.0,-77.96,-80.81
115407.0,0.79,0.49,-0.98,-0.03,-0.98,0.16,-17.12,-78.09,-80.89
115475.0,0.8,0.16,-0.85,0.02,-0.98,0.19,-17.15,-78.11,-80.73
115539.0,0.82,0.13,-0.62,-0.01,-0.99,0.17,-17.24,-78.21,-80.76
115608.0,0.87,0.02,-0.6,-0.02,-0.98,0.17,-17.34,-78.3,-80.81
115676.0,0.93,-0.35,-0.27,-0.0,-0.99,0.17,-17.41,-78.38,-80.82
115740.0,0.99,0.01,0.04,-0.02,-0.97,0.17,-17.48,-78.45,-80.84
115808.0,1.27,-0.1,0.34,-0.01,-0.98,0.17,-17.52,-78.48,-80.78
115875.0,1.17,-0.68,0.6,-0.03,-0.97,0.19,-17.44,-78.41,-80.5
115940.0,1.31,0.16,0.74,-0.05,-0.96,0.19,-17.38,-78.35,-80.26
116007.0,1.34,0.16,1.05,-0.14,-0.95,0.2,-17.11,-78.07,-79.55
116076.0,1.58,0.79,-0.69,-0.1,-0.99,0.18,-17.0,-77.96,-79.31
116141.0,1.96,0.31,-1.05,-0.1,-1.0,0.18,-16.9,-77.86,-79.12
116208.0,2.34,1.15,-0.63,-0.09,-1.01,0.24,-16.6,-77.57,-78.52
116276.0,0.64,0.05,0.19,-0.05,-0.93,0.27,-16.28,-77.24,-77.74
116340.0,1.3,-0.11,0.11,-0.04,-0.99,0.2,-16.27,-77.23,-77.79
116408.0,0.77,0.54,-0.03,-0.17,-0.97,0.2,-16.06,-77.02,-77.34
116474.0,1.63,-0.64,0.37,-0.21,-1.0,0.16,-15.83,-76.8,-76.93
116541.0,1.88,1.23,0.32,-0.13,-0.99,0.25,-15.53,-76.5,-76.41
116609.0,0.67,1.23,0.57,-0.13,-0.96,0.24,-15.32,-76.28,-76.0
116675.0,1.31,-0.55,1.02,-0.29,-1.0,0.25,-14.73,-75.7,-74.79
116741.0,0.82,0.62,1.78,-0.18,-0.96,0.23,-14.48,-75.45,-74.39
116809.0,0.22,2.43,1.01,-0.17,-0.96,0.18,-14.49,-75.45,-74.56
116876.0,1.17,1.13,0.53,-0.31,-0.97,0.18,-14.01,-74.98,-73.66
116941.0,1.53,0.99,0.44,-0.18,-0.91,0.24,-13.68,-74.65,-73.19
117010.0,1.08,0.33,0.27,-0.23,-0.96,0.28,-13.22,-74.19,-72.38
117075.0,0.3,0.64,0.0,-0.3,-0.92,0.23,-12.74,-73.7,-71.49
117142.0,1.07,0.19,-0.97,-0.39,-0.96,0.2,-12.1,-73.06,-70.34
117211.0,0.66,-0.15,-1.63,-0.27,-0.93,0.23,-11.77,-72.74,-69.94
117276.0,0.72,0.15,-2.02,-0.34,-0.95,0.2,-11.36,-72.33,-69.36
117343.0,0.66,0.47,-1.76,-0.26,-0.94,0.21,-11.18,-72.14,-69.31
117411.0,0.6,0.63,-1.55,-0.24,-0.94,0.25,-10.97,-71.93,-69.2
117477.0,0.09,0.53,-1.26,-0.26,-0.94,0.22,-10.85,-71.81,-69.22
117543.0,0.05,0.82,-1.22,-0.27,-0.93,0.17,-10.79,-71.75,-69.36
117611.0,0.58,0.44,-1.37,-0.28,-0.94,0.17,-10.7,-71.66,-69.47
117678.0,0.92,0.72,-1.44,-0.25,-0.95,0.19,-10.66,-71.63,-69.71
117744.0,0.94,1.05,-1.34,-0.25,-0.94,0.17,-10.62,-71.59,-69.91
117812.0,1.23,0.98,-1.13,-0.26,-0.95,0.17,-10.58,-71.54,-70.09
117876.0,1.42,0.84,-1.18,-0.27,-0.94,0.18,-10.47,-71.43,-70.11
117944.0,1.44,0.69,-1.33,-0.26,-0.95,0.21,-10.33,-71.29,-70.05
118012.0,1.15,0.48,-1.33,-0.25,-0.95,0.21,-10.23,-71.2,-70.06
118077.0,0.91,0.49,-1.3,-0.25,-0.95,0.2,-10.19,-71.16,-70.17
118145.0,0.87,0.43,-1.21,-0.24,-0.95,0.2,-10.19,-71.15,-70.34
118212.0,0.71,0.49,-1.16,-0.25,-0.94,0.19,-10.16,-71.13,-70.42
118277.0,0.85,0.46,-1.1,-0.24,-0.95,0.19,-10.17,-71.14,-70.59
118345.0,0.91,0.47,-1.02,-0.25,-0.95,0.19,-10.16,-71.12,-70.69
118413.0,0.92,0.42,-1.02,-0.24,-0.95,0.19,-10.14,-71.11,-70.78
118477.0,0.85,0.42,-1.02,-0.24,-0.94,0.19,-10.15,-71.11,-70.89
118546.0,0.86,0.42,-0.98,-0.24,-0.95,0.19,-10.15,-71.12,-70.99
118614.0,0.94,0.4,-1.0,-0.25,-0.94,0.19,-10.13,-71.09,-71.03
118678.0,0.92,0.47,-1.0,-0.24,-0.95,0.2,-10.11,-71.07,-71.07
118746.0,0.89,0.39,-0.98,-0.24,-0.95,0.19,-10.11,-71.07,-71.14
118814.0,0.88,0.41,-1.02,-0.25,-0.95,0.2,-10.09,-71.05,-71.15
118879.0,0.87,0.35,-0.99,-0.25,-0.95,0.19,-10.08,-71.05,-71.2
118946.0,0.92,0.43,-1.01,-0.25,-0.94,0.2,-10.05,-71.01,-71.19
119015.0,0.78,0.27,-1.02,-0.24,-0.96,0.21,-10.03,-70.99,-71.19
119079.0,0.79,0.2,-0.98,-0.25,-0.95,0.2,-10.0,-70.97,-71.17
119147.0,0.84,0.16,-0.97,-0.25,-0.95,0.19,-9.99,-70.96,-71.19
119215.0,0.89,0.29,-0.99,-0.25,-0.95,0.19,-9.99,-70.96,-71.24
119279.0,0.91,0.4,-1.04,-0.25,-0.95,0.2,-9.98,-70.95,-71.27
119348.0,0.89,0.42,-1.05,-0.25,-0.95,0.19,-10.0,-70.96,-71.34
119415.0,0.93,0.38,-1.02,-0.25,-0.95,0.2,-9.99,-70.95,-71.35
119480.0,0.84,0.39,-0.99,-0.25,-0.95,0.2,-9.98,-70.94,-71.37
119548.0,0.81,0.38,-0.99,-0.25,-0.95,0.19,-9.97,-70.93,-71.37
119616.0,0.85,0.39,-1.0,-0.25,-0.95,0.19,-9.96,-70.93,-71.38
119681.0,0.88,0.39,-1.01,-0.25,-0.95,0.2,-9.94,-70.9,-71.34
119748.0,0.89,0.38,-1.01,-0.25,-0.95,0.19,-9.95,-70.92,-71.41
119817.0,0.9,0.4,-1.01,-0.25,-0.95,0.19,-9.95,-70.91,-71.43
119881.0,0.89,0.37,-1.02,-0.25,-0.95,0.19,-9.95,-70.91,-71.45
119949.0,0.86,0.44,-1.02,-0.25,-0.95,0.19,-9.94,-70.91,-71.45
120017.0,0.82,0.47,-0.98,-0.25,-0.94,0.19,-9.93,-70.89,-71.43
120082.0,0.93,0.38,-1.02,-0.25,-0.95,0.2,-9.93,-70.89,-71.46
120150.0,0.87,0.34,-1.02,-0.25,-0.95,0.2,-9.9,-70.86,-71.4
120217.0,0.85,0.35,-1.0,-0.25,-0.95,0.19,-9.89,-70.86,-71.41
120282.0,0.83,0.34,-0.99,-0.25,-0.95,0.19,-9.91,-70.88,-71.47
120350.0,0.84,0.36,-1.0,-0.25,-0.95,0.2,-9.91,-70.87,-71.47
120418.0,0.86,0.37,-0.99,-0.25,-0.95,0.19,-9.92,-70.89,-71.51
120482.0,0.88,0.39,-1.04,-0.25,-0.95,0.19,-9.9,-70.87,-71.49
120551.0,0.89,0.43,-1.04,-0.25,-0.94,0.19,-9.9,-70.86,-71.48
120619.0,0.9,0.42,-1.06,-0.25,-0.95,0.19,-9.9,-70.87,-71.51
120683.0,0.9,0.41,-1.02,-0.25,-0.94,0.2,-9.89,-70.85,-71.49
120751.0,0.92,0.4,-1.05,-0.25,-0.95,0.2,-9.88,-70.84,-71.47
120819.0,0.82,0.34,-0.99,-0.24,-0.95,0.19,-9.89,-70.85,-71.51
120884.0,0.86,0.33,-0.96,-0.25,-0.95,0.19,-9.9,-70.86,-71.54
120951.0,0.86,0.24,-0.98,-0.25,-0.95,0.19,-9.9,-70.87,-71.56
121019.0,1.0,0.39,-1.08,-0.25,-0.95,0.18,-9.91,-70.87,-71.59
121083.0,1.18,0.44,-1.15,-0.25,-0.94,0.19,-9.89,-70.85,-71.56
121152.0,1.13,0.24,-1.21,-0.25,-0.95,0.2,-9.85,-70.81,-71.5
121218.0,1.14,0.16,-1.25,-0.24,-0.99,0.22,-9.83,-70.8,-71.5
121284.0,0.87,0.37,-1.75,-0.23,-1.01,0.22,-9.92,-70.89,-71.72
121352.0,0.45,0.28,-2.16,-0.24,-0.98,0.2,-10.01,-70.98,-71.87
121418.0,0.55,0.54,-2.26,-0.23,-0.89,0.19,-10.02,-70.99,-71.85
121485.0,0.6,0.04,-1.64,-0.2,-0.89,0.2,-10.09,-71.05,-71.97
121552.0,0.06,-0.04,-1.23,-0.19,-0.95,0.19,-10.31,-71.28,-72.4
121619.0,0.77,1.55,-1.11,-0.21,-0.86,0.13,-10.47,-71.43,-72.72
121684.0,1.2,0.59,-0.47,-0.22,-0.89,0.17,-10.48,-71.44,-72.71
121752.0,1.22,0.38,-0.44,-0.2,-1.07,0.21,-10.64,-71.6,-73.06
121819.0,1.02,0.65,-0.71,-0.24,-0.92,0.19,-10.59,-71.55,-72.88
121885.0,1.41,0.85,-0.56,-0.23,-0.9,0.18,-10.53,-71.5,-72.74
121953.0,1.1,0.19,-0.5,-0.16,-1.13,0.21,-10.83,-71.79,-73.4
122018.0,0.85,0.57,-0.67,-0.24,-0.91,0.21,-10.71,-71.68,-73.03
122085.0,0.56,0.27,-0.79,-0.24,-0.98,0.21,-10.69,-71.66,-72.9
122152.0,0.39,0.33,-0.95,-0.23,-0.94,0.19,-10.72,-71.69,-72.86
122219.0,0.5,0.21,-0.88,-0.24,-0.95,0.18,-10.74,-71.7,-72.82
122286.0,0.6,0.34,-0.88,-0.23,-0.95,0.17,-10.79,-71.76,-72.89
122353.0,0.9,0.37,-0.94,-0.24,-0.95,0.18,-10.79,-71.76,-72.85
122418.0,0.89,0.36,-1.02,-0.24,-0.96,0.18,-10.8,-71.77,-72.85
122485.0,1.08,0.44,-1.05,-0.24,-0.95,0.18,-10.78,-71.74,-72.77
122552.0,1.11,0.43,-1.15,-0.24,-0.95,0.19,-10.74,-71.7,-72.68
122617.0,1.0,0.4,-1.15,-0.23,-0.95,0.19,-10.72,-71.69,-72.63
122686.0,0.95,0.4,-1.01,-0.24,-0.95,0.2,-10.69,-71.66,-72.55
122752.0,0.77,0.36,-0.94,-0.24,-0.95,0.2,-10.65,-71.61,-72.42
122818.0,0.73,0.27,-1.0,-0.24,-0.95,0.19,-10.64,-71.61,-72.4
122886.0,0.84,0.21,-1.04,-0.24,-0.95,0.17,-10.66,-71.63,-72.44
122952.0,1.27,0.37,-1.27,-0.25,-0.95,0.18,-10.62,-71.58,-72.37
123019.0,1.68,0.31,-1.49,-0.23,-0.98,0.19,-10.61,-71.58,-72.43
123086.0,1.62,0.53,-1.57,-0.23,-0.95,0.21,-10.53,-71.5,-72.3
123153.0,1.27,0.44,-1.61,-0.22,-0.97,0.24,-10.48,-71.44,-72.2
123218.0,0.63,0.24,-1.73,-0.21,-0.98,0.22,-10.51,-71.48,-72.27
123286.0,0.54,0.23,-1.82,-0.19,-0.97,0.2,-10.65,-71.62,-72.56
123353.0,0.55,0.37,-1.79,-0.19,-0.95,0.19,-10.79,-71.75,-72.84
123419.0,0.95,0.16,-1.81,-0.19,-0.98,0.2,-10.92,-71.89,-73.12
123487.0,0.79,0.47,-1.93,-0.19,-0.93,0.18,-11.04,-72.0,-73.33
123552.0,1.21,-0.2,-1.86,-0.21,-0.95,0.2,-11.02,-71.98,-73.26
123619.0,1.29,0.51,-2.02,-0.18,-0.97,0.19,-11.13,-72.1,-73.51
123685.0,1.57,0.27,-2.05,-0.17,-0.94,0.2,-11.21,-72.18,-73.69
123751.0,1.85,0.82,-2.04,-0.15,-0.96,0.2,-11.31,-72.28,-73.93
123819.0,1.71,0.59,-1.89,-0.15,-0.94,0.23,-11.3,-72.26,-73.87
123885.0,1.76,0.91,-1.84,-0.16,-0.93,0.23,-11.25,-72.21,-73.75
123951.0,1.66,0.61,-2.17,-0.13,-1.03,0.23,-11.37,-72.34,-74.03
124019.0,1.33,0.56,-2.02,-0.16,-0.97,0.2,-11.5,-72.46,-74.27
124085.0,1.18,3.69,-3.14,-0.06,-1.01,0.18,-11.91,-72.87,-75.13
124151.0,1.19,3.42,-5.08,-0.02,-1.05,0.19,-12.32,-73.29,-75.98
124219.0,0.46,4.72,-7.17,-0.03,-1.04,0.14,-12.92,-73.89,-77.14
124284.0,-0.56,5.61,-8.26,-0.07,-0.97,0.11,-13.56,-74.53,-78.23
124351.0,-0.85,6.79,-8.47,0.0,-0.96,0.08,-14.38,-75.35,-79.69
124417.0,-1.4,6.37,-7.4,-0.06,-1.0,0.15,-14.86,-75.83,-80.21
124483.0,-2.43,7.02,-5.22,-0.0,-1.0,0.16,-15.39,-76.35,-80.76
124551.0,-2.97,7.46,-3.41,0.03,-0.94,0.14,-15.9,-76.87,-81.23
124617.0,-2.56,7.44,-1.4,-0.0,-0.88,0.17,-16.22,-77.19,-81.29
124683.0,-1.18,8.23,-0.35,0.05,-0.89,0.19,-16.31,-77.28,-80.96
124751.0,0.1,7.51,0.31,0.07,-0.89,0.24,-16.53,-77.06,-80.07
124817.0,1.89,8.02,0.24,0.1,-0.91,0.24,-16.87,-76.72,-79.14
124883.0,3.19,7.61,-0.12,0.08,-0.86,0.24,-17.27,-76.32,-78.24
124951.0,21.11,2.98,-6.65,0.9,-1.99,0.28,-19.38,-74.21,-74.99
125018.0,12.63,1.85,-2.09,0.01,-0.96,0.47,-20.87,-72.73,-72.58
125083.0,0.84,0.89,-1.35,0.05,-1.06,0.24,-20.62,-72.97,-73.27
125152.0,0.28,-0.86,-1.2,0.08,-0.98,0.29,-20.65,-72.95,-73.22
125217.0,-1.34,-1.28,-0.96,0.09,-0.96,0.25,-20.45,-73.14,-73.55
125284.0,-0.68,-0.48,-1.08,0.09,-1.0,0.14,-19.87,-73.72,-74.81
125351.0,0.21,0.08,-0.89,0.06,-0.99,0.16,-19.43,-74.16,-75.77
125418.0,0.69,0.42,-1.16,0.08,-0.98,0.13,-18.98,-74.61,-76.73
125485.0,1.13,0.91,-1.52,0.08,-0.98,0.17,-18.74,-74.85,-77.17
125552.0,1.31,0.63,-1.73,0.05,-0.96,0.19,-18.58,-75.01,-77.43
125619.0,2.08,0.98,-2.21,0.05,-0.97,0.18,-18.41,-75.18,-77.76
125685.0,2.39,0.87,-2.51,0.07,-0.97,0.21,-18.42,-75.17,-77.68
125753.0,2.17,1.27,-2.92,0.08,-0.97,0.21,-18.43,-75.16,-77.6
125819.0,1.15,1.98,-3.23,0.12,-1.05,0.22,-18.4,-75.19,-77.52
125885.0,1.83,4.4,-2.42,0.15,-0.97,0.18,-18.43,-75.16,-77.38
125952.0,2.25,4.22,-2.11,0.14,-0.96,0.24,-18.66,-74.93,-76.81
