timestamp millis,GyrX,GyrY,GyrZ,AccX,AccY,AccZ,Complementary_Filter_Angle_Calculated,Complementary_Filter_Angle,Kalman_Filter_Angle
8460.0,0.73,0.49,-1.24,-0.17,-0.93,0.32,0.0,-68.57,-69.5
8524.0,1.16,0.46,-1.57,-0.1,-0.94,0.34,0.0,-68.56,-69.47
8592.0,1.49,0.46,-1.39,-0.14,-0.94,0.32,0.0,-68.53,-69.43
8659.0,0.92,0.88,-1.33,-0.12,-0.93,0.34,0.0,-68.48,-69.31
8724.0,1.41,0.39,-1.06,-0.1,-0.93,0.35,0.0,-68.4,-69.16
8792.0,0.7,0.67,-0.98,-0.14,-0.94,0.34,0.0,-68.37,-69.09
8857.0,0.88,1.12,-1.15,-0.16,-0.93,0.34,0.0,-68.29,-68.89
8924.0,0.91,0.95,-1.0,-0.14,-0.92,0.35,0.0,-68.19,-68.69
8991.0,0.61,0.65,-1.05,-0.14,-0.93,0.34,0.0,-68.16,-68.61
9056.0,0.73,-0.08,-0.82,-0.14,-0.93,0.33,0.0,-68.15,-68.61
9123.0,0.82,0.21,-1.07,-0.14,-0.93,0.35,0.0,-68.09,-68.5
9189.0,0.9,0.0,-0.98,-0.15,-0.94,0.35,0.0,-68.03,-68.39
9254.0,0.78,-0.04,-0.82,-0.13,-0.92,0.36,0.0,-67.93,-68.21
9322.0,0.73,0.45,-1.14,-0.16,-0.92,0.36,0.0,-67.79,-67.92
9387.0,0.75,0.86,-1.3,-0.14,-0.93,0.35,0.0,-67.75,-67.88
9454.0,0.62,0.77,-1.28,-0.15,-0.93,0.35,0.0,-67.71,-67.82
9522.0,0.68,0.65,-1.3,-0.14,-0.93,0.35,0.0,-67.7,-67.85
9586.0,0.71,0.6,-1.37,-0.14,-0.93,0.33,0.0,-67.72,-67.97
9654.0,0.76,0.82,-1.68,-0.13,-0.93,0.34,0.0,-67.73,-68.01
9720.0,0.69,0.51,-1.5,-0.13,-0.93,0.36,0.0,-67.67,-67.91
9786.0,0.6,0.44,-1.09,-0.12,-0.93,0.36,0.0,-67.64,-67.89
9853.0,0.53,0.41,-1.02,-0.12,-0.93,0.35,0.0,-67.65,-67.92
9918.0,0.61,0.61,-1.16,-0.17,-0.93,0.34,0.0,-67.61,-67.85
9986.0,0.62,0.85,-1.1,-0.1,-0.93,0.34,0.0,-67.68,-68.05
10051.0,0.41,-0.07,-0.87,-0.11,-0.93,0.35,0.0,-67.71,-68.12
10118.0,0.53,0.2,-1.02,-0.14,-0.93,0.33,0.0,-67.77,-68.26
10185.0,0.6,0.15,-0.99,-0.14,-0.93,0.34,0.0,-67.76,-68.25
10251.0,0.69,0.79,-1.19,-0.13,-0.93,0.35,0.0,-67.76,-68.25
10317.0,0.74,0.73,-1.17,-0.13,-0.92,0.35,0.0,-67.73,-68.21
10385.0,0.68,0.74,-1.14,-0.12,-0.93,0.35,0.0,-67.73,-68.22
10449.0,0.63,0.83,-1.05,-0.12,-0.93,0.34,0.0,-67.77,-68.31
10517.0,0.6,0.31,-0.92,-0.13,-0.93,0.34,0.0,-67.8,-68.37
10583.0,0.55,0.19,-0.78,-0.14,-0.93,0.33,0.0,-67.82,-68.42
10649.0,0.59,0.07,-0.67,-0.14,-0.93,0.34,0.0,-67.83,-68.42
10717.0,0.65,0.24,-0.82,-0.14,-0.93,0.34,0.0,-67.83,-68.43
10782.0,0.69,0.47,-0.97,-0.17,-0.92,0.35,0.0,-67.75,-68.24
10849.0,0.71,0.72,-0.98,-0.13,-0.93,0.34,0.0,-67.78,-68.31
10916.0,0.63,0.53,-0.86,-0.13,-0.93,0.34,0.0,-67.79,-68.36
10981.0,0.56,-0.14,-0.53,-0.12,-0.93,0.34,0.0,-67.82,-68.41
11048.0,0.44,-0.15,-0.59,-0.18,-0.92,0.35,0.0,-67.73,-68.17
11114.0,0.54,0.31,-0.99,-0.18,-0.92,0.32,0.0,-67.73,-68.18
11181.0,0.84,0.73,-1.46,-0.19,-0.92,0.36,0.0,-67.58,-67.86
11248.0,0.81,0.75,-1.47,-0.13,-0.93,0.35,0.0,-67.55,-67.83
11314.0,0.63,0.36,-1.15,-0.11,-0.92,0.35,0.0,-67.57,-67.91
11380.0,0.56,0.21,-1.12,-0.14,-0.93,0.34,0.0,-67.58,-67.96
11448.0,0.6,0.3,-0.99,-0.14,-0.93,0.34,0.0,-67.61,-68.04
11511.0,0.56,0.39,-0.98,-0.15,-0.93,0.35,0.0,-67.58,-67.97
11579.0,0.62,0.58,-1.08,-0.13,-0.93,0.34,0.0,-67.61,-68.07
11645.0,0.63,0.39,-1.21,-0.16,-0.92,0.34,0.0,-67.58,-68.01
11711.0,0.66,0.51,-1.22,-0.15,-0.92,0.34,0.0,-67.59,-68.05
11780.0,0.67,0.25,-1.15,-0.15,-0.93,0.33,0.0,-67.61,-68.1
11845.0,0.67,0.59,-1.27,-0.13,-0.93,0.35,0.0,-67.6,-68.08
11911.0,0.62,0.5,-1.21,-0.13,-0.93,0.34,0.0,-67.62,-68.14
11979.0,0.57,0.41,-1.07,-0.12,-0.93,0.35,0.0,-67.64,-68.18
12043.0,0.6,0.29,-1.06,-0.14,-0.92,0.35,0.0,-67.63,-68.15
12110.0,0.64,0.46,-1.1,-0.14,-0.93,0.34,0.0,-67.64,-68.19
12177.0,0.66,0.55,-1.11,-0.14,-0.93,0.34,0.0,-67.66,-68.22
12242.0,0.65,0.42,-1.09,-0.13,-0.93,0.34,0.0,-67.69,-68.3
12311.0,0.67,0.38,-1.08,-0.14,-0.93,0.34,0.0,-67.68,-68.27
12377.0,0.66,0.47,-1.07,-0.14,-0.93,0.34,0.0,-67.68,-68.29
12443.0,0.58,0.36,-1.07,-0.14,-0.93,0.33,0.0,-67.71,-68.34
12511.0,0.57,0.32,-1.05,-0.14,-0.93,0.34,0.0,-67.72,-68.34
12574.0,0.62,0.36,-1.08,-0.14,-0.94,0.34,0.0,-67.73,-68.37
12643.0,0.69,0.46,-1.1,-0.13,-0.93,0.34,0.0,-67.76,-68.43
12708.0,0.68,0.23,-1.0,-0.13,-0.93,0.34,0.0,-67.77,-68.43
12775.0,0.64,0.21,-1.03,-0.14,-0.93,0.35,0.0,-67.74,-68.35
12843.0,0.68,0.33,-1.1,-0.14,-0.93,0.35,0.0,-67.72,-68.32
12908.0,0.7,0.56,-1.24,-0.14,-0.93,0.35,0.0,-67.7,-68.26
12975.0,0.79,0.27,-1.7,-0.17,-0.92,0.37,0.0,-67.53,-67.88
13042.0,0.64,1.15,-2.43,-0.16,-0.93,0.34,0.0,-67.53,-67.89
13106.0,0.79,2.05,-2.28,-0.11,-0.94,0.33,0.0,-67.63,-68.18
13174.0,0.59,0.27,-1.19,-0.01,-0.94,0.35,0.0,-67.73,-68.4
13240.0,0.1,-1.44,-0.39,-0.04,-0.93,0.34,0.0,-67.86,-68.64
13305.0,0.24,-0.69,-1.0,-0.16,-0.93,0.32,0.0,-67.93,-68.74
13373.0,0.54,-0.16,-0.82,-0.1,-0.94,0.35,0.0,-67.95,-68.77
13440.0,0.64,-0.33,-0.3,-0.16,-0.95,0.34,0.0,-67.95,-68.74
13505.0,0.85,0.64,-0.72,-0.11,-0.93,0.36,0.0,-67.89,-68.58
13572.0,0.56,0.35,-1.03,-0.12,-0.93,0.35,0.0,-67.9,-68.58
13637.0,0.66,0.68,-1.33,-0.1,-0.93,0.33,0.0,-67.97,-68.73
13705.0,0.65,0.57,-1.34,-0.14,-0.93,0.33,0.0,-67.99,-68.76
13771.0,0.82,1.5,-1.54,-0.12,-0.93,0.34,0.0,-68.0,-68.79
13837.0,0.83,1.13,-1.3,-0.12,-0.93,0.35,0.0,-67.96,-68.69
13904.0,0.91,1.56,-1.29,-0.1,-0.94,0.35,0.0,-67.96,-68.68
13971.0,0.72,0.35,-0.86,-0.06,-0.93,0.35,0.0,-67.98,-68.74
14036.0,0.52,-0.36,-0.77,-0.11,-0.93,0.35,0.0,-68.0,-68.73
14103.0,0.64,0.24,-0.93,-0.17,-0.92,0.34,0.0,-67.95,-68.61
14169.0,0.69,0.58,-0.79,-0.13,-0.93,0.34,0.0,-67.96,-68.63
14236.0,0.58,0.02,-0.67,-0.08,-0.94,0.36,0.0,-67.98,-68.64
14303.0,0.41,-0.25,-0.73,-0.13,-0.93,0.34,0.0,-68.01,-68.69
14368.0,0.32,0.03,-0.73,-0.15,-0.93,0.34,0.0,-68.01,-68.66
14436.0,0.55,0.34,-1.0,-0.16,-0.93,0.34,0.0,-67.97,-68.54
14501.0,0.75,0.92,-1.24,-0.12,-0.93,0.32,0.0,-68.04,-68.73
14568.0,0.79,0.79,-1.38,-0.14,-0.94,0.34,0.0,-68.06,-68.77
14633.0,0.76,0.81,-1.38,-0.1,-0.94,0.34,0.0,-68.08,-68.82
14700.0,0.54,-0.16,-0.75,-0.12,-0.93,0.35,0.0,-68.07,-68.76
14768.0,0.6,-0.01,-0.75,-0.14,-0.93,0.34,0.0,-68.04,-68.66
14833.0,0.71,0.29,-0.92,-0.12,-0.93,0.34,0.0,-68.03,-68.65
14900.0,0.56,0.24,-1.05,-0.13,-0.93,0.35,0.0,-68.01,-68.6
14965.0,0.59,0.26,-0.92,-0.14,-0.93,0.35,0.0,-67.98,-68.52
15032.0,0.63,0.98,-1.17,-0.15,-0.93,0.33,0.0,-68.0,-68.56
15099.0,0.75,0.98,-1.36,-0.12,-0.93,0.34,0.0,-68.02,-68.61
15165.0,0.74,0.91,-1.26,-0.11,-0.94,0.34,0.0,-68.06,-68.71
15230.0,0.56,0.04,-0.81,-0.09,-0.93,0.35,0.0,-68.09,-68.77
15299.0,0.47,-0.25,-0.76,-0.14,-0.93,0.34,0.0,-68.08,-68.71
15365.0,0.73,0.69,-1.25,-0.17,-0.93,0.33,0.0,-68.02,-68.59
15431.0,0.73,0.99,-1.3,-0.12,-0.93,0.34,0.0,-68.02,-68.58
15497.0,0.63,0.44,-1.08,-0.11,-0.93,0.34,0.0,-68.05,-68.67
15562.0,0.59,0.24,-0.95,-0.12,-0.93,0.34,0.0,-68.07,-68.7
15631.0,0.59,0.1,-0.92,-0.15,-0.93,0.34,0.0,-68.06,-68.66
15696.0,0.66,0.4,-1.02,-0.13,-0.93,0.33,0.0,-68.09,-68.73
15763.0,0.62,0.34,-1.06,-0.13,-0.92,0.34,0.0,-68.08,-68.71
15831.0,0.63,0.35,-1.06,-0.13,-0.93,0.34,0.0,-68.08,-68.69
15896.0,0.66,0.32,-1.05,-0.13,-0.93,0.34,0.0,-68.08,-68.69
15963.0,0.66,0.52,-1.08,-0.13,-0.93,0.35,0.0,-68.05,-68.61
16028.0,0.64,0.36,-1.05,-0.13,-0.93,0.35,0.0,-68.02,-68.56
16096.0,0.56,0.36,-0.98,-0.12,-0.93,0.35,0.0,-68.01,-68.53
16162.0,0.56,0.26,-0.95,-0.13,-0.93,0.33,0.0,-68.04,-68.6
16228.0,0.59,0.29,-0.99,-0.15,-0.93,0.34,0.0,-68.03,-68.57
16294.0,0.68,0.55,-1.11,-0.13,-0.93,0.33,0.0,-68.07,-68.67
16362.0,0.67,0.53,-1.05,-0.13,-0.93,0.34,0.0,-68.07,-68.66
16428.0,0.66,0.45,-1.02,-0.14,-0.93,0.34,0.0,-68.05,-68.62
16494.0,0.7,0.11,-0.88,-0.13,-0.94,0.35,0.0,-68.03,-68.57
16560.0,0.63,0.32,-0.94,-0.13,-0.93,0.35,0.0,-68.01,-68.53
16627.0,0.57,0.21,-0.89,-0.14,-0.93,0.33,0.0,-68.02,-68.56
16694.0,0.55,0.27,-0.9,-0.13,-0.93,0.34,0.0,-68.02,-68.56
16759.0,0.6,0.31,-0.93,-0.14,-0.93,0.33,0.0,-68.04,-68.59
16826.0,0.64,0.44,-0.94,-0.14,-0.93,0.34,0.0,-68.03,-68.57
16893.0,0.66,0.47,-0.95,-0.14,-0.93,0.34,0.0,-68.02,-68.55
16959.0,0.63,0.41,-0.98,-0.14,-0.93,0.34,0.0,-67.99,-68.48
17026.0,0.63,0.47,-0.97,-0.14,-0.93,0.33,0.0,-68.01,-68.53
17091.0,0.69,0.4,-1.02,-0.15,-0.93,0.33,0.0,-68.01,-68.56
17159.0,0.68,0.37,-1.02,-0.14,-0.93,0.34,0.0,-67.98,-68.5
17225.0,0.6,0.22,-0.98,-0.15,-0.93,0.34,0.0,-67.98,-68.48
17291.0,0.68,0.43,-1.05,-0.14,-0.93,0.34,0.0,-67.94,-68.42
17357.0,0.66,0.43,-1.04,-0.14,-0.93,0.34,0.0,-67.93,-68.39
17425.0,0.64,0.54,-1.03,-0.14,-0.93,0.34,0.0,-67.93,-68.41
17490.0,0.66,0.38,-0.97,-0.14,-0.93,0.34,0.0,-67.94,-68.43
17557.0,0.57,0.31,-0.95,-0.15,-0.93,0.34,0.0,-67.92,-68.4
17623.0,0.66,0.34,-0.92,-0.15,-0.93,0.34,0.0,-67.91,-68.39
17690.0,0.62,0.31,-0.92,-0.15,-0.93,0.34,0.0,-67.88,-68.32
17757.0,0.59,0.39,-1.07,-0.15,-0.93,0.33,0.0,-67.88,-68.33
17822.0,0.66,0.4,-1.06,-0.15,-0.93,0.33,0.0,-67.91,-68.41
17889.0,0.66,0.56,-1.09,-0.15,-0.93,0.35,0.0,-67.87,-68.33
17956.0,0.76,0.37,-1.09,-0.14,-0.93,0.34,0.0,-67.85,-68.29
18022.0,0.68,0.34,-1.09,-0.16,-0.93,0.35,0.0,-67.79,-68.18
18088.0,0.67,0.37,-1.07,-0.15,-0.93,0.34,0.0,-67.78,-68.17
18154.0,0.69,0.4,-1.12,-0.14,-0.93,0.34,0.0,-67.78,-68.19
18222.0,0.66,0.37,-1.09,-0.15,-0.93,0.35,0.0,-67.74,-68.13
18288.0,0.67,0.27,-1.09,-0.15,-0.93,0.34,0.0,-67.73,-68.12
18354.0,0.63,0.43,-1.09,-0.15,-0.92,0.33,0.0,-67.74,-68.16
18420.0,0.64,0.42,-1.14,-0.15,-0.93,0.34,0.0,-67.75,-68.19
18488.0,0.68,0.44,-1.12,-0.15,-0.93,0.34,0.0,-67.73,-68.17
18553.0,0.66,0.37,-1.11,-0.14,-0.93,0.34,0.0,-67.73,-68.18
18620.0,0.67,0.39,-1.11,-0.14,-0.93,0.34,0.0,-67.72,-68.18
18685.0,0.6,0.39,-1.09,-0.15,-0.93,0.34,0.0,-67.71,-68.16
18753.0,0.62,0.3,-1.11,-0.15,-0.93,0.34,0.0,-67.7,-68.16
18820.0,0.62,0.31,-1.14,-0.14,-0.93,0.34,0.0,-67.71,-68.17
18885.0,0.63,0.31,-1.15,-0.15,-0.93,0.34,0.0,-67.7,-68.17
18952.0,0.66,0.46,-1.16,-0.14,-0.92,0.34,0.0,-67.71,-68.2
19019.0,0.65,0.39,-1.14,-0.14,-0.93,0.34,0.0,-67.73,-68.26
19085.0,0.63,0.44,-1.18,-0.13,-0.93,0.34,0.0,-67.74,-68.28
19151.0,0.61,0.42,-1.13,-0.14,-0.93,0.35,0.0,-67.72,-68.24
19217.0,0.63,0.36,-1.14,-0.14,-0.93,0.35,0.0,-67.72,-68.24
19284.0,0.61,0.38,-1.09,-0.14,-0.93,0.34,0.0,-67.74,-68.29
19351.0,0.61,0.55,-1.08,-0.14,-0.93,0.34,0.0,-67.77,-68.36
19417.0,0.64,0.3,-1.01,-0.14,-0.93,0.34,0.0,-67.78,-68.37
19485.0,0.65,0.42,-1.03,-0.14,-0.93,0.34,0.0,-67.77,-68.34
19551.0,0.66,0.35,-1.03,-0.14,-0.93,0.34,0.0,-67.75,-68.31
19616.0,0.62,0.4,-1.03,-0.14,-0.93,0.33,0.0,-67.78,-68.36
19683.0,0.65,0.4,-1.03,-0.14,-0.93,0.34,0.0,-67.77,-68.34
19748.0,0.65,0.43,-1.04,-0.13,-0.93,0.34,0.0,-67.78,-68.37
19816.0,0.63,0.38,-1.05,-0.15,-0.93,0.34,0.0,-67.77,-68.33
19883.0,0.63,0.56,-1.09,-0.14,-0.93,0.34,0.0,-67.78,-68.37
19948.0,0.66,0.49,-1.08,-0.13,-0.94,0.34,0.0,-67.8,-68.4
20016.0,0.63,0.31,-1.02,-0.14,-0.93,0.34,0.0,-67.82,-68.46
20082.0,0.66,0.4,-1.07,-0.15,-0.93,0.34,-0.0,-67.83,-68.46
20149.0,0.64,0.34,-1.05,-0.14,-0.93,0.34,-0.01,-67.83,-68.46
20214.0,0.64,0.4,-1.07,-0.14,-0.93,0.34,0.0,-67.82,-68.43
20281.0,0.66,0.3,-1.03,-0.14,-0.93,0.35,0.03,-67.79,-68.35
20348.0,0.62,0.37,-1.03,-0.14,-0.93,0.34,0.04,-67.78,-68.34
20415.0,0.62,0.35,-1.07,-0.15,-0.93,0.35,0.07,-67.75,-68.27
20481.0,0.65,0.46,-1.08,-0.14,-0.93,0.34,0.06,-67.76,-68.3
20548.0,0.64,0.4,-1.08,-0.14,-0.93,0.34,0.07,-67.75,-68.28
20615.0,0.63,0.41,-1.06,-0.14,-0.93,0.34,0.05,-67.77,-68.32
20680.0,0.64,0.44,-1.09,-0.14,-0.93,0.34,0.04,-67.78,-68.35
20749.0,0.65,0.46,-1.06,-0.14,-0.93,0.35,0.06,-67.76,-68.3
20814.0,0.62,0.37,-1.06,-0.14,-0.93,0.33,0.04,-67.79,-68.36
20881.0,0.66,0.37,-1.06,-0.15,-0.92,0.34,0.06,-67.77,-68.31
20948.0,0.66,0.45,-1.05,-0.14,-0.93,0.34,0.05,-67.77,-68.33
21015.0,0.62,0.4,-1.05,-0.14,-0.93,0.34,0.07,-67.75,-68.29
21081.0,0.66,0.34,-1.03,-0.15,-0.93,0.34,0.09,-67.74,-68.26
21147.0,0.61,0.32,-1.06,-0.14,-0.92,0.35,0.11,-67.71,-68.2
21213.0,0.6,0.37,-1.04,-0.14,-0.93,0.34,0.09,-67.73,-68.25
21281.0,0.62,0.4,-1.07,-0.15,-0.93,0.34,0.1,-67.72,-68.22
21347.0,0.63,0.39,-1.07,-0.15,-0.93,0.34,0.11,-67.71,-68.22
21413.0,0.66,0.45,-1.06,-0.14,-0.92,0.34,0.12,-67.7,-68.2
21481.0,0.65,0.43,-1.05,-0.14,-0.93,0.34,0.13,-67.7,-68.2
21548.0,0.58,0.32,-1.05,-0.15,-0.93,0.34,0.12,-67.7,-68.21
21613.0,0.56,0.26,-1.04,-0.16,-0.93,0.34,0.14,-67.68,-68.16
21681.0,0.6,-0.28,-0.77,-0.1,-0.93,0.34,0.06,-67.76,-68.35
21747.0,0.6,-0.86,-1.22,-0.12,-0.93,0.33,-0.01,-67.83,-68.5
21814.0,0.88,-0.53,-1.42,-0.15,-0.94,0.33,-0.05,-67.87,-68.61
21881.0,0.92,0.59,-1.22,-0.14,-0.93,0.33,-0.07,-67.9,-68.68
21947.0,1.1,0.24,-1.05,-0.1,-0.94,0.31,-0.2,-68.03,-69.0
22013.0,1.19,-0.32,-0.76,-0.13,-0.93,0.34,-0.16,-67.98,-68.89
22079.0,1.34,-0.8,-0.31,-0.1,-0.93,0.32,-0.21,-68.03,-69.03
22146.0,1.06,-1.58,0.22,-0.12,-0.92,0.36,-0.12,-67.94,-68.82
22213.0,1.06,-3.26,0.89,-0.17,-0.91,0.39,0.18,-67.65,-68.13
22280.0,1.26,-0.21,0.27,-0.15,-0.92,0.38,0.36,-67.46,-67.77
22345.0,1.48,-0.8,0.05,-0.11,-0.91,0.42,0.66,-67.17,-67.18
22413.0,1.01,-0.86,0.5,-0.18,-0.87,0.42,1.07,-66.75,-66.3
22479.0,1.8,2.79,-1.39,-0.05,-0.89,0.45,1.43,-66.39,-65.69
22546.0,1.78,2.98,-1.79,-0.09,-0.92,0.44,1.73,-66.09,-65.22
22614.0,1.19,1.73,-0.54,-0.16,-0.92,0.42,1.94,-65.88,-64.93
22679.0,0.83,1.91,-1.04,-0.18,-0.89,0.45,2.29,-65.53,-64.31
22746.0,0.5,1.87,-1.33,-0.2,-0.93,0.44,2.52,-65.3,-63.94
22813.0,0.05,0.99,-0.51,-0.27,-0.9,0.45,2.91,-64.91,-63.19
22880.0,0.12,1.57,0.66,-0.19,-0.87,0.44,3.19,-64.63,-62.74
22945.0,-0.27,2.33,0.37,-0.19,-0.86,0.4,3.3,-64.52,-62.67
23011.0,-0.4,3.96,-0.63,-0.05,-0.87,0.38,3.15,-64.68,-63.2
23077.0,-0.62,2.59,-0.79,-0.13,-0.89,0.39,3.09,-64.73,-63.43
23145.0,-0.19,3.48,-1.43,-0.15,-0.98,0.38,2.89,-64.94,-64.04
23212.0,-0.9,5.52,-1.69,-0.1,-0.94,0.34,2.54,-65.29,-64.87
23277.0,-2.15,6.15,-2.53,0.27,-0.89,0.25,2.27,-65.56,-65.35
23345.0,-2.22,4.67,-10.17,0.71,-0.98,0.64,1.02,-64.31,-62.26
23411.0,-1.38,-3.95,-17.19,-0.46,-1.5,0.72,1.2,-64.13,-61.93
23477.0,3.61,-8.15,-11.94,-0.24,-1.0,0.12,0.65,-64.68,-63.77
23543.0,4.18,-7.29,-9.65,-0.07,-0.89,0.24,0.22,-65.11,-65.24
23609.0,1.8,-9.73,-5.95,-0.26,-0.79,0.31,0.47,-64.85,-64.79
23676.0,7.5,-3.29,-1.69,-0.25,-0.77,0.19,0.74,-64.59,-64.82
23743.0,4.37,-2.55,0.88,0.1,-0.81,0.39,0.41,-64.26,-64.43
23809.0,1.54,-0.12,1.77,0.34,-0.93,0.34,0.2,-64.05,-64.05
23876.0,3.21,-0.08,1.44,0.79,-1.12,0.33,-0.8,-63.05,-61.98
23943.0,0.51,2.45,2.64,0.05,-0.66,0.37,-1.01,-62.84,-61.65
24008.0,-0.44,10.38,4.11,0.92,-1.04,0.53,-2.26,-61.58,-58.82
24077.0,-3.58,-9.63,4.15,-0.58,-0.63,0.37,-1.15,-60.47,-56.21
24142.0,-3.9,0.31,5.43,-0.24,-0.91,0.4,-1.56,-60.88,-57.28
24209.0,6.19,-0.51,5.18,-0.1,-0.85,0.39,-1.45,-60.77,-57.95
24274.0,0.31,3.11,4.38,-0.05,-0.84,0.45,-1.49,-60.81,-58.38
24341.0,-1.08,5.5,3.6,0.06,-0.9,0.32,-2.22,-61.54,-60.23
24409.0,-2.04,1.35,2.67,-0.02,-0.86,0.45,-2.41,-61.73,-60.63
24475.0,0.05,2.2,0.89,-0.23,-0.96,0.47,-2.39,-61.71,-60.71
24541.0,-2.09,2.97,1.34,0.35,-1.07,0.37,-2.7,-62.02,-61.35
24608.0,-4.37,3.54,-4.61,0.38,-1.08,0.41,-3.02,-62.34,-61.77
24675.0,-3.75,-6.53,-11.43,0.03,-0.92,0.85,-3.84,-61.52,-59.57
24740.0,0.7,-4.4,-13.19,-0.27,-1.14,0.56,-3.88,-61.48,-59.74
24807.0,3.66,-7.26,-6.94,-0.29,-0.92,0.22,-3.6,-61.76,-60.89
24872.0,4.67,-13.22,-4.82,-0.06,-0.93,0.24,-2.98,-62.39,-62.85
24941.0,2.26,-14.4,-1.44,-0.27,-0.84,0.21,-2.73,-62.63,-63.55
25007.0,6.63,-5.7,1.6,-0.16,-0.95,0.12,-2.08,-63.28,-65.57
25072.0,0.31,-4.51,4.4,-0.04,-0.96,0.06,-0.53,-64.84,-68.97
25141.0,4.92,3.89,3.83,1.01,-0.98,0.67,-2.65,-62.72,-63.99
25206.0,2.01,0.39,-1.05,-0.11,-0.54,0.26,-2.76,-62.6,-63.75
25273.0,4.87,-0.35,1.11,0.56,-2.0,0.52,-2.62,-62.75,-64.39
25341.0,-2.73,2.67,5.78,-0.83,-0.43,0.72,0.1,-60.02,-57.6
25407.0,-2.63,-1.57,8.37,-0.06,-0.94,0.29,-0.92,-61.05,-60.03
25474.0,5.27,-0.11,6.11,-0.05,-0.92,0.47,-0.7,-60.83,-60.1
25541.0,0.44,5.47,2.98,0.09,-0.93,0.39,-1.07,-61.2,-61.07
25608.0,-0.98,5.39,1.63,-0.09,-0.85,0.42,-1.27,-61.39,-61.45
25673.0,-1.27,0.27,2.37,-0.19,-0.95,0.39,-1.62,-61.75,-62.16
25741.0,-1.26,0.95,2.05,-0.14,-0.99,0.4,-2.05,-62.17,-62.99
25807.0,-2.15,2.13,0.86,-0.03,-0.98,0.39,-2.63,-62.76,-64.07
25873.0,-3.34,6.05,-2.63,0.43,-0.8,0.29,-2.81,-62.57,-63.2
25939.0,-2.2,-0.56,-9.92,0.32,-1.06,0.6,-3.05,-62.33,-62.37
26005.0,3.6,-3.27,-13.79,-0.54,-1.23,0.74,-2.21,-61.49,-60.71
26073.0,2.22,-5.48,-8.23,-0.24,-1.01,0.02,-3.11,-62.39,-63.09
26139.0,4.21,-14.24,-6.97,-0.11,-0.98,0.03,-4.32,-63.6,-66.23
26205.0,2.79,-8.05,-5.98,-0.31,-0.93,0.18,-4.53,-63.81,-66.67
26272.0,5.65,2.31,-4.92,-0.21,-0.87,0.12,-4.94,-64.22,-67.81
26339.0,3.14,1.07,-1.82,0.09,-0.85,0.16,-5.69,-64.97,-69.47
26405.0,-0.15,1.73,1.62,-0.08,-0.67,0.53,-4.75,-64.03,-66.76
26473.0,8.53,10.22,0.41,0.81,-1.0,0.37,-6.38,-62.41,-63.42
26539.0,0.38,1.82,-0.38,0.02,-0.9,0.4,-6.15,-62.64,-63.89
26605.0,1.24,16.52,1.56,0.77,-1.34,0.32,-6.54,-62.24,-62.95
26671.0,3.31,1.66,-0.55,-0.39,-0.59,0.42,-5.19,-60.89,-60.01
26737.0,0.02,5.45,0.69,-0.1,-0.9,0.62,-4.77,-60.48,-59.15
26805.0,4.8,-2.94,1.94,-0.19,-0.81,0.39,-4.58,-60.29,-59.28
26871.0,-0.61,10.18,-0.27,0.01,-0.88,0.4,-4.98,-60.68,-60.27
26937.0,-0.53,5.11,0.37,-0.14,-0.86,0.44,-5.1,-60.81,-60.56
27005.0,-0.88,10.34,-0.55,-0.11,-0.87,0.37,-5.5,-61.2,-61.44
27071.0,-0.39,4.27,0.02,-0.07,-0.87,0.37,-5.89,-61.59,-62.29
27138.0,-0.63,2.96,0.83,-0.15,-0.95,0.38,-6.29,-61.99,-63.11
27205.0,-0.64,6.34,-0.47,0.08,-1.02,0.37,-6.87,-62.57,-64.28
27271.0,-0.52,5.56,-1.69,0.41,-1.13,0.43,-6.85,-62.59,-64.09
27337.0,-2.83,3.97,-11.06,0.44,-1.12,0.4,-6.72,-62.72,-63.99
27403.0,-1.69,0.95,-16.98,-0.37,-1.15,0.61,-6.49,-62.49,-63.17
27469.0,1.51,0.31,-15.54,-0.19,-1.02,0.25,-7.12,-63.12,-64.7
27537.0,3.81,-9.41,-10.18,0.06,-0.96,0.35,-7.37,-63.37,-65.45
27603.0,1.11,-11.41,-3.98,-0.18,-0.75,0.27,-7.52,-63.52,-65.68
27669.0,0.66,-5.68,0.88,-0.35,-0.72,0.16,-7.36,-63.37,-65.15
27737.0,4.63,1.39,5.3,-0.07,-0.78,-0.02,-8.56,-64.57,-68.16
27803.0,8.7,15.39,1.61,0.59,-1.17,0.6,-9.84,-63.29,-65.58
27869.0,1.18,-1.56,0.87,-0.04,-0.82,0.44,-9.63,-63.08,-64.95
27937.0,-5.13,-15.48,6.18,-0.07,-1.44,0.36,-10.83,-64.28,-67.1
28003.0,-0.01,7.63,3.4,-0.33,-0.67,0.98,-8.64,-62.09,-61.68
28069.0,3.56,-4.0,5.44,-0.15,-0.85,0.36,-8.65,-62.1,-62.08
28137.0,1.55,2.1,4.08,-0.0,-0.85,0.51,-8.35,-61.8,-61.52
28201.0,0.31,6.15,3.16,0.17,-0.89,0.32,-8.72,-62.17,-62.47
28269.0,-2.02,1.15,3.14,-0.12,-0.84,0.41,-8.91,-62.36,-62.72
28336.0,-1.27,2.5,4.42,-0.2,-0.94,0.46,-8.97,-62.42,-62.7
28401.0,-0.86,-0.32,5.6,0.02,-0.94,0.46,-9.11,-62.56,-62.94
28469.0,-1.62,0.93,2.24,0.09,-0.97,0.37,-9.62,-63.08,-63.97
28535.0,-2.5,9.02,-8.21,0.63,-1.11,0.19,-9.72,-62.99,-63.44
28601.0,-0.32,-1.54,-17.82,-0.23,-1.3,0.72,-9.52,-62.79,-62.91
28668.0,1.85,6.58,-16.92,-0.28,-1.11,0.26,-9.99,-63.25,-64.15
28735.0,0.76,-10.08,-10.49,-0.02,-0.97,0.23,-10.88,-64.15,-66.23
28801.0,1.85,-8.18,-6.23,-0.21,-0.79,0.25,-11.03,-64.3,-66.51
28867.0,5.87,-3.46,-1.65,-0.33,-0.68,0.25,-10.29,-63.56,-65.06
28933.0,4.5,-0.04,2.85,-0.08,-0.83,0.19,-10.88,-64.15,-66.68
29001.0,2.31,-1.24,3.08,0.33,-0.85,0.27,-11.05,-63.97,-66.2
29067.0,9.21,24.28,-1.15,1.42,-1.18,0.5,-13.44,-61.58,-61.21
29133.0,-0.91,-1.37,6.63,0.28,-1.56,0.0,-12.1,-62.92,-64.32
29201.0,-9.43,-3.73,2.4,-0.99,-0.05,0.5,-8.47,-59.29,-54.86
29267.0,-14.46,7.09,7.23,0.1,-1.03,0.03,-11.13,-61.95,-60.27
29334.0,3.73,1.69,5.31,-0.37,-0.9,0.4,-10.68,-61.5,-59.74
29402.0,0.65,6.38,3.12,0.02,-0.88,0.4,-10.94,-61.75,-60.59
29468.0,1.32,0.15,2.2,-0.02,-0.89,0.45,-10.94,-61.75,-60.84
29534.0,-0.91,2.76,2.92,-0.2,-0.93,0.36,-11.27,-62.09,-61.66
29601.0,-0.89,1.72,2.22,-0.07,-0.96,0.4,-11.68,-62.5,-62.58
29668.0,-1.5,5.27,1.15,-0.06,-0.96,0.42,-12.04,-62.85,-63.27
29734.0,-1.89,4.26,-0.08,0.3,-0.92,0.31,-12.28,-63.1,-63.64
29802.0,-3.48,6.31,-7.89,0.32,-1.14,0.21,-13.08,-63.9,-65.14
29867.0,-1.8,0.09,-12.6,-0.37,-1.15,0.76,-12.48,-63.29,-63.42
29934.0,-0.82,-1.53,-10.39,-0.32,-0.98,0.25,-12.84,-63.65,-64.18
30002.0,2.34,-5.25,-7.89,-0.03,-0.87,0.17,-13.77,-64.59,-66.52
30066.0,2.63,-7.69,-5.07,-0.22,-0.86,0.35,-13.58,-64.4,-66.11
30134.0,4.92,-0.54,-4.18,-0.1,-0.84,0.29,-13.66,-64.48,-66.53
30200.0,4.66,-8.44,0.26,0.12,-0.95,0.16,-14.32,-65.14,-68.28
30266.0,3.34,-11.4,2.72,-0.19,-0.88,0.4,-13.99,-64.81,-67.46
30333.0,3.68,-1.08,2.58,0.58,-1.07,0.31,-14.67,-64.13,-65.92
30400.0,4.06,-10.88,4.07,0.33,-0.98,0.49,-15.29,-63.51,-64.64
30466.0,0.5,-5.7,5.32,-0.07,-0.75,0.28,-14.96,-63.85,-65.36
30534.0,-0.72,0.78,3.2,0.43,-1.56,-0.06,-14.17,-64.64,-66.98
30600.0,3.63,-1.9,2.25,-0.25,-0.75,0.6,-12.84,-63.32,-63.97
30666.0,1.24,-3.15,5.26,-0.22,-1.01,0.34,-13.12,-63.59,-64.66
30734.0,0.68,-0.94,5.53,-0.17,-0.87,0.43,-12.97,-63.44,-64.26
30798.0,-0.21,-1.56,5.34,0.0,-0.85,0.32,-13.39,-63.86,-65.14
30867.0,-0.57,-1.26,4.04,-0.18,-0.9,0.38,-13.49,-63.97,-65.21
30935.0,-0.84,-3.66,4.35,-0.22,-0.96,0.37,-13.68,-64.15,-65.44
30999.0,-0.99,-3.62,4.85,-0.14,-0.93,0.43,-13.73,-64.2,-65.33
31067.0,-1.37,0.36,2.76,0.11,-0.92,0.45,-13.7,-64.23,-65.16
31132.0,-1.66,2.53,-1.16,0.21,-1.02,0.42,-13.52,-64.41,-65.35
31199.0,-3.19,1.1,-9.59,0.21,-1.09,0.29,-12.82,-65.11,-66.61
31266.0,-0.89,-1.73,-12.59,-0.34,-1.13,0.6,-12.41,-64.7,-65.42
31333.0,1.86,-0.24,-11.62,-0.26,-0.97,0.24,-12.69,-64.98,-66.17
31398.0,3.92,-11.66,-7.54,0.0,-0.96,0.3,-13.0,-65.29,-67.12
31467.0,2.92,-15.14,-3.99,-0.19,-0.84,0.36,-12.74,-65.03,-66.59
31531.0,6.4,-6.69,-2.15,-0.23,-0.8,0.3,-12.33,-64.63,-66.06
31599.0,5.14,-8.14,1.86,0.11,-0.94,0.07,-13.26,-65.55,-68.51
31667.0,0.34,-6.13,2.73,-0.06,-0.77,0.39,-13.06,-65.35,-67.76
31731.0,2.26,4.28,2.73,0.96,-1.09,0.41,-14.54,-63.88,-64.25
31799.0,5.82,1.16,0.36,0.01,-0.86,0.4,-14.8,-63.61,-64.1
31866.0,-2.38,-9.76,4.8,-0.03,-1.59,0.07,-13.0,-65.42,-68.07
31932.0,-1.64,6.34,4.16,-0.55,-0.61,0.44,-11.39,-63.81,-63.87
32000.0,1.13,-5.65,5.69,-0.12,-0.83,0.28,-11.76,-64.18,-64.84
32067.0,1.49,6.37,4.26,-0.09,-0.88,0.44,-11.58,-64.0,-64.49
32132.0,2.08,2.29,2.93,0.09,-0.92,0.41,-11.54,-63.96,-64.55
32200.0,0.15,2.2,2.75,-0.22,-0.87,0.42,-11.36,-63.78,-64.09
32268.0,-0.83,3.67,3.16,-0.18,-0.89,0.38,-11.47,-63.88,-64.23
32332.0,-0.07,2.57,2.7,-0.14,-0.94,0.4,-11.59,-64.01,-64.5
32400.0,-0.67,3.08,1.44,-0.15,-0.93,0.46,-11.53,-63.95,-64.25
32466.0,-0.97,3.95,0.56,0.19,-0.93,0.36,-11.78,-64.2,-64.72
32533.0,-1.92,10.33,-7.56,0.44,-1.17,0.26,-12.04,-64.46,-65.12
32601.0,-0.59,-2.58,-14.22,0.01,-1.09,0.83,-12.83,-63.67,-63.16
32666.0,-0.11,-1.99,-13.95,-0.22,-1.05,0.43,-12.73,-63.78,-63.46
32733.0,2.81,-7.75,-9.99,-0.18,-0.99,0.2,-12.11,-64.4,-65.2
32800.0,3.07,-5.72,-7.37,-0.18,-0.84,0.29,-12.03,-64.48,-65.58
32867.0,3.65,-3.81,-4.05,-0.17,-0.83,0.27,-11.95,-64.55,-65.97
32932.0,6.47,-5.34,1.05,-0.2,-0.83,0.22,-11.95,-64.56,-66.41
33000.0,2.76,-0.11,2.95,-0.06,-0.89,0.31,-11.7,-64.81,-67.04
33064.0,7.41,19.09,1.52,0.93,-1.1,0.48,-13.44,-63.06,-63.38
33133.0,3.92,1.43,-0.74,-0.12,-0.72,0.39,-13.04,-62.66,-62.75
33201.0,-0.56,-1.88,4.33,0.11,-1.77,0.19,-14.51,-64.12,-66.12
33265.0,-4.0,3.43,4.85,-0.65,-0.45,0.39,-12.44,-62.05,-60.69
33334.0,-4.18,-0.92,5.65,-0.14,-0.76,0.2,-13.39,-63.0,-62.72
33401.0,6.7,1.72,2.98,-0.22,-0.87,0.47,-12.68,-62.29,-61.71
33466.0,0.15,9.11,1.27,0.11,-0.85,0.42,-12.72,-62.34,-61.9
33534.0,-0.42,2.27,1.09,-0.16,-0.87,0.49,-12.54,-62.15,-61.49
33602.0,-1.4,4.93,2.67,-0.2,-0.86,0.38,-12.73,-62.34,-61.87
33667.0,0.34,1.12,1.63,-0.11,-0.89,0.43,-12.78,-62.39,-62.09
33734.0,-0.84,2.41,0.97,-0.08,-0.94,0.41,-13.09,-62.7,-62.77
33802.0,-1.15,2.88,-0.04,0.1,-0.96,0.38,-13.5,-63.11,-63.63
33866.0,-1.53,7.11,-5.49,0.49,-1.06,0.29,-13.5,-63.11,-63.43
33935.0,-4.08,-2.42,-12.84,0.01,-0.99,0.6,-13.56,-63.05,-62.91
34002.0,-0.54,3.13,-14.5,-0.33,-1.11,0.54,-13.39,-62.88,-62.49
34066.0,3.1,0.07,-10.4,-0.17,-0.96,0.19,-14.07,-63.56,-64.41
34135.0,2.61,-8.89,-5.84,-0.06,-0.89,0.26,-14.58,-64.07,-65.73
34198.0,1.37,-7.43,-2.99,-0.2,-0.82,0.26,-14.77,-64.26,-66.12
34267.0,6.26,-1.35,0.27,-0.15,-0.82,0.22,-14.95,-64.44,-66.87
34334.0,2.29,-2.04,2.8,0.09,-0.89,0.19,-15.67,-65.16,-68.5
34399.0,5.73,11.44,1.26,0.33,-0.89,0.42,-16.46,-64.37,-66.81
34466.0,5.33,-4.62,-0.7,0.58,-1.1,0.53,-17.47,-63.36,-64.64
34534.0,2.85,-7.9,5.45,-0.24,-1.34,0.15,-16.63,-64.2,-66.74
34598.0,-2.59,-1.05,0.75,-0.24,-0.8,0.61,-15.86,-63.43,-64.42
34667.0,0.98,5.32,1.93,0.19,-1.07,0.6,-16.19,-63.1,-63.63
34735.0,8.4,-2.07,1.92,-0.34,-0.9,0.46,-15.27,-62.18,-62.19
34799.0,0.65,4.78,3.2,0.06,-0.92,0.35,-15.71,-62.62,-63.29
34867.0,2.69,-0.7,2.16,-0.11,-0.9,0.44,-15.59,-62.49,-63.17
34935.0,-0.11,2.53,1.92,-0.14,-0.92,0.45,-15.62,-62.53,-63.18
35000.0,0.56,0.64,1.69,-0.15,-0.95,0.42,-15.75,-62.66,-63.47
35067.0,0.64,-1.89,1.33,-0.09,-0.94,0.46,-15.77,-62.68,-63.48
35135.0,-0.47,2.73,-0.82,-0.21,-0.88,0.4,-15.83,-62.74,-63.51
35200.0,0.23,2.69,-0.51,-0.13,-0.91,0.41,-15.95,-62.86,-63.74
35267.0,-0.6,3.65,0.14,-0.04,-0.85,0.41,-16.09,-63.0,-63.93
35332.0,-2.34,5.77,-1.59,0.31,-1.02,0.41,-15.94,-63.16,-63.99
35399.0,-3.49,2.52,-8.0,-0.01,-1.15,0.26,-14.72,-64.37,-66.43
35467.0,-1.18,2.03,-9.38,-0.36,-0.94,0.46,-14.37,-64.01,-65.26
35531.0,0.49,1.75,-8.23,-0.13,-0.94,0.25,-14.98,-64.62,-66.61
35599.0,0.82,-2.13,-5.33,-0.1,-0.94,0.21,-15.72,-65.36,-68.19
35666.0,2.44,-2.42,-4.95,-0.23,-0.88,0.19,-15.99,-65.63,-68.74
35731.0,1.61,0.75,-3.08,-0.08,-0.9,0.16,-16.81,-66.45,-70.48
35799.0,1.91,2.95,-2.02,-0.04,-0.89,0.22,-17.33,-66.98,-71.43
35862.0,2.21,0.15,-1.0,0.13,-0.91,0.25,-17.6,-67.24,-71.78
35930.0,0.35,-3.53,1.13,0.05,-0.87,0.31,-17.79,-67.44,-71.76
35997.0,2.61,-2.56,1.36,0.3,-0.97,0.34,-18.12,-67.11,-70.79
36062.0,3.11,-1.82,1.84,-0.01,-0.98,0.34,-18.04,-67.19,-70.87
36130.0,-0.87,-1.63,2.99,0.05,-0.83,0.37,-18.07,-67.15,-70.31
36198.0,1.02,6.0,3.56,-0.01,-0.95,0.34,-17.92,-67.31,-70.45
36262.0,2.29,-2.72,3.21,-0.1,-0.88,0.44,-17.45,-66.84,-69.23
36330.0,0.94,1.64,0.15,-0.14,-0.89,0.47,-17.0,-66.39,-68.01
36395.0,2.01,3.11,-0.87,-0.11,-0.91,0.43,-16.69,-66.08,-67.33
36463.0,2.09,2.44,-0.44,-0.14,-0.91,0.41,-16.48,-65.87,-66.9
36531.0,0.84,1.03,0.4,-0.1,-0.9,0.45,-16.19,-65.59,-66.22
36595.0,0.77,1.01,0.21,-0.06,-0.93,0.39,-16.24,-65.63,-66.35
36663.0,1.05,-0.27,-0.62,-0.04,-0.9,0.45,-16.02,-65.41,-65.86
36731.0,0.24,0.37,-2.19,-0.08,-0.86,0.48,-15.67,-65.06,-65.04
36796.0,0.4,0.27,-0.73,-0.21,-0.9,0.45,-15.35,-64.74,-64.33
36864.0,0.34,0.76,0.17,-0.1,-0.9,0.41,-15.33,-64.72,-64.39
36931.0,-0.31,0.6,-0.12,-0.11,-0.9,0.4,-15.38,-64.77,-64.52
36996.0,0.16,2.1,-1.07,-0.09,-0.93,0.39,-15.52,-64.91,-64.91
37064.0,-0.2,1.47,-0.6,-0.14,-0.91,0.38,-15.61,-65.0,-65.12
37132.0,0.17,0.89,-0.23,-0.1,-0.91,0.37,-15.73,-65.12,-65.42
37196.0,0.27,0.32,-0.57,-0.15,-0.91,0.38,-15.76,-65.15,-65.49
37264.0,0.47,0.63,-1.06,-0.16,-0.92,0.37,-15.82,-65.21,-65.64
37332.0,0.65,0.63,-1.32,-0.19,-0.91,0.37,-15.78,-65.18,-65.59
37397.0,0.49,0.69,-1.35,-0.2,-0.91,0.37,-15.76,-65.15,-65.54
37465.0,0.73,1.4,-1.63,-0.15,-0.91,0.37,-15.81,-65.2,-65.68
37532.0,0.66,1.34,-1.87,-0.1,-0.92,0.37,-15.92,-65.31,-65.96
37597.0,0.52,0.8,-1.62,-0.09,-0.93,0.37,-16.06,-65.46,-66.28
37665.0,0.58,0.48,-1.34,-0.14,-0.93,0.36,-16.17,-65.56,-66.5
37733.0,0.55,0.18,-0.97,-0.12,-0.92,0.37,-16.22,-65.62,-66.58
37797.0,0.46,-0.37,-0.92,-0.14,-0.91,0.37,-16.25,-65.64,-66.59
37865.0,0.66,0.4,-1.21,-0.13,-0.92,0.37,-16.3,-65.69,-66.65
37934.0,0.68,0.44,-1.23,-0.13,-0.92,0.37,-16.32,-65.71,-66.68
37998.0,0.69,0.51,-1.13,-0.12,-0.93,0.38,-16.36,-65.75,-66.73
38066.0,0.52,0.48,-0.95,-0.11,-0.92,0.38,-16.38,-65.77,-66.73
38133.0,0.39,-0.02,-0.82,-0.12,-0.92,0.38,-16.4,-65.79,-66.72
38198.0,0.24,0.5,-0.87,-0.15,-0.92,0.37,-16.42,-65.81,-66.7
38266.0,0.29,-0.08,-0.59,-0.13,-0.93,0.35,-16.56,-65.95,-66.96
38334.0,0.33,-0.08,-0.96,-0.16,-0.93,0.34,-16.69,-66.08,-67.18
38398.0,0.77,1.02,-1.58,-0.13,-0.93,0.34,-16.82,-66.21,-67.45
38466.0,0.98,0.53,-1.24,-0.16,-0.92,0.37,-16.79,-66.18,-67.34
38531.0,0.79,1.19,-1.35,-0.11,-0.91,0.39,-16.75,-66.14,-67.19
38599.0,0.81,1.11,-1.6,-0.1,-0.92,0.38,-16.74,-66.13,-67.13
38667.0,0.56,1.13,-1.5,-0.12,-0.92,0.36,-16.81,-66.2,-67.25
38731.0,0.65,0.56,-1.36,-0.13,-0.93,0.36,-16.85,-66.25,-67.3
38799.0,0.63,0.68,-1.21,-0.12,-0.93,0.37,-16.9,-66.29,-67.36
38867.0,0.58,0.26,-1.14,-0.12,-0.93,0.37,-16.94,-66.34,-67.41
38932.0,0.55,0.4,-1.17,-0.12,-0.92,0.36,-16.98,-66.38,-67.44
39000.0,0.6,0.31,-1.19,-0.12,-0.93,0.36,-17.04,-66.43,-67.52
39067.0,0.61,0.38,-1.21,-0.1,-0.93,0.36,-17.13,-66.52,-67.68
39132.0,0.59,0.37,-1.27,-0.11,-0.92,0.36,-17.18,-66.57,-67.72
39200.0,0.44,0.28,-1.07,-0.12,-0.92,0.36,-17.23,-66.62,-67.75
39268.0,0.54,0.39,-1.02,-0.13,-0.92,0.36,-17.27,-66.66,-67.78
39332.0,0.57,0.44,-1.02,-0.12,-0.93,0.35,-17.35,-66.74,-67.92
39400.0,0.62,0.39,-1.02,-0.11,-0.93,0.35,-17.44,-66.83,-68.05
39469.0,0.6,0.48,-1.09,-0.12,-0.93,0.36,-17.47,-66.86,-68.05
39533.0,0.63,0.42,-1.11,-0.12,-0.92,0.36,-17.5,-66.89,-68.06
39601.0,0.6,0.56,-1.05,-0.11,-0.93,0.35,-17.56,-66.95,-68.14
39668.0,0.6,0.3,-1.01,-0.11,-0.93,0.36,-17.59,-66.98,-68.14
39733.0,0.72,0.35,-1.03,-0.12,-0.93,0.35,-17.63,-67.02,-68.18
39801.0,0.67,0.4,-1.08,-0.13,-0.93,0.36,-17.64,-67.03,-68.15
39869.0,0.71,0.47,-1.06,-0.12,-0.93,0.37,-17.6,-66.99,-68.01
39933.0,0.7,0.42,-1.08,-0.11,-0.93,0.37,-17.6,-66.99,-67.96
40001.0,0.63,0.23,-1.02,-0.11,-0.92,0.36,-17.61,-67.0,-67.94
40070.0,0.64,0.3,-0.98,-0.12,-0.93,0.36,-17.6,-67.0,-67.9
40134.0,0.57,0.31,-0.99,-0.12,-0.93,0.36,-17.63,-67.02,-67.92
40202.0,0.57,0.32,-1.02,-0.12,-0.92,0.36,-17.64,-67.03,-67.91
40269.0,0.63,0.53,-1.1,-0.13,-0.92,0.37,-17.61,-67.01,-67.82
40335.0,0.69,0.52,-1.12,-0.12,-0.93,0.35,-17.65,-67.04,-67.88
40402.0,0.61,0.44,-1.08,-0.12,-0.92,0.37,-17.63,-67.02,-67.81
40470.0,0.64,0.33,-1.05,-0.12,-0.92,0.36,-17.64,-67.03,-67.8
40535.0,0.62,0.36,-1.02,-0.12,-0.93,0.36,-17.65,-67.04,-67.81
40603.0,0.64,0.33,-1.02,-0.12,-0.92,0.37,-17.61,-67.0,-67.7
40671.0,0.6,0.27,-1.04,-0.12,-0.92,0.36,-17.61,-67.0,-67.69
40735.0,0.6,0.34,-1.06,-0.13,-0.92,0.36,-17.61,-67.0,-67.68
40803.0,0.61,0.51,-1.11,-0.13,-0.93,0.36,-17.62,-67.01,-67.69
40871.0,0.68,0.46,-1.11,-0.12,-0.93,0.35,-17.66,-67.05,-67.77
40936.0,0.63,0.32,-0.98,-0.12,-0.92,0.36,-17.65,-67.04,-67.74
41004.0,0.67,0.34,-1.03,-0.12,-0.93,0.36,-17.67,-67.06,-67.77
41070.0,0.62,0.51,-1.17,-0.13,-0.93,0.36,-17.65,-67.04,-67.71
41137.0,0.69,0.65,-1.13,-0.11,-0.93,0.36,-17.65,-67.04,-67.71
41204.0,0.63,0.5,-1.07,-0.11,-0.92,0.37,-17.64,-67.03,-67.68
41271.0,0.59,0.23,-0.94,-0.12,-0.92,0.36,-17.64,-67.03,-67.68
41336.0,0.58,0.4,-0.92,-0.12,-0.93,0.36,-17.67,-67.06,-67.72
41405.0,0.63,0.44,-0.99,-0.12,-0.93,0.35,-17.69,-67.09,-67.78
41470.0,0.6,0.21,-0.92,-0.12,-0.93,0.37,-17.68,-67.07,-67.72
41537.0,0.6,0.15,-0.91,-0.13,-0.92,0.36,-17.66,-67.05,-67.66
41605.0,0.57,0.21,-0.98,-0.14,-0.93,0.36,-17.63,-67.02,-67.6
41671.0,0.63,0.41,-1.07,-0.14,-0.93,0.36,-17.63,-67.03,-67.6
41738.0,0.67,0.38,-1.12,-0.14,-0.93,0.36,-17.62,-67.01,-67.58
41805.0,0.66,0.53,-1.11,-0.13,-0.92,0.36,-17.6,-66.99,-67.53
41872.0,0.65,0.46,-1.09,-0.12,-0.93,0.36,-17.62,-67.01,-67.58
41938.0,0.63,0.42,-1.15,-0.12,-0.92,0.36,-17.61,-67.0,-67.56
42006.0,0.64,0.38,-1.1,-0.12,-0.93,0.36,-17.63,-67.03,-67.62
42073.0,0.72,0.53,-1.18,-0.13,-0.92,0.36,-17.63,-67.02,-67.61
42139.0,0.73,0.54,-1.14,-0.12,-0.92,0.36,-17.64,-67.03,-67.65
42207.0,0.69,0.56,-1.07,-0.12,-0.93,0.36,-17.66,-67.05,-67.7
42273.0,0.67,0.23,-1.0,-0.12,-0.93,0.36,-17.65,-67.04,-67.67
42340.0,0.63,0.34,-1.0,-0.12,-0.92,0.36,-17.64,-67.03,-67.64
42407.0,0.6,0.27,-0.97,-0.13,-0.92,0.36,-17.63,-67.02,-67.6
42474.0,0.59,0.37,-1.02,-0.13,-0.92,0.35,-17.67,-67.06,-67.69
42540.0,0.68,0.42,-1.03,-0.13,-0.93,0.36,-17.68,-67.07,-67.72
42608.0,0.65,0.33,-1.02,-0.13,-0.92,0.36,-17.67,-67.06,-67.69
42675.0,0.65,0.37,-1.02,-0.12,-0.92,0.36,-17.67,-67.07,-67.69
42740.0,0.66,0.31,-1.04,-0.13,-0.92,0.36,-17.65,-67.05,-67.64
42809.0,0.63,0.46,-1.09,-0.13,-0.93,0.36,-17.64,-67.03,-67.61
42874.0,0.63,0.38,-1.08,-0.13,-0.92,0.37,-17.62,-67.01,-67.56
42941.0,0.63,0.38,-1.08,-0.12,-0.92,0.36,-17.62,-67.02,-67.57
43010.0,0.63,0.41,-1.08,-0.13,-0.93,0.36,-17.61,-67.0,-67.54
43075.0,0.63,0.4,-1.06,-0.13,-0.93,0.35,-17.63,-67.03,-67.6
43142.0,0.66,0.44,-1.11,-0.13,-0.92,0.35,-17.65,-67.04,-67.63
43210.0,0.63,0.4,-1.08,-0.12,-0.92,0.36,-17.64,-67.03,-67.61
43276.0,0.62,0.37,-1.08,-0.13,-0.92,0.36,-17.63,-67.02,-67.59
43342.0,0.62,0.37,-1.08,-0.13,-0.92,0.36,-17.63,-67.02,-67.59
43410.0,0.64,0.33,-1.06,-0.14,-0.92,0.36,-17.6,-66.99,-67.51
43476.0,0.61,0.44,-1.09,-0.13,-0.93,0.36,-17.6,-66.99,-67.52
