timestamp millis,GyrX,GyrY,GyrZ,AccX,AccY,AccZ,Complementary_Filter_Angle_Calculated,Complementary_Filter_Angle,Kalman_Filter_Angle
9071.0,0.84,0.4,-0.93,0.08,-0.98,0.16,0.0,-78.23,-79.08
9136.0,0.85,0.4,-1.08,0.09,-0.98,0.17,0.0,-78.23,-79.08
9203.0,0.84,0.58,-1.05,0.09,-0.98,0.16,0.0,-78.26,-79.14
9269.0,0.85,0.46,-1.03,0.1,-0.98,0.16,0.0,-78.28,-79.18
9334.0,0.87,0.31,-0.98,0.1,-0.98,0.16,0.0,-78.28,-79.17
9402.0,0.9,0.27,-0.92,0.1,-0.97,0.16,0.0,-78.29,-79.17
9468.0,0.92,0.35,-0.92,0.1,-0.98,0.16,0.0,-78.28,-79.15
9534.0,0.92,0.4,-0.95,0.1,-0.98,0.16,0.0,-78.28,-79.14
9602.0,0.89,0.41,-0.94,0.1,-0.98,0.16,0.0,-78.27,-79.12
9666.0,0.89,0.4,-0.95,0.09,-0.98,0.16,0.0,-78.28,-79.13
9734.0,0.92,0.33,-0.92,0.1,-0.98,0.16,0.0,-78.27,-79.11
9800.0,0.92,0.32,-0.93,0.1,-0.98,0.17,0.0,-78.26,-79.07
9866.0,0.89,0.37,-0.92,0.1,-0.98,0.17,0.0,-78.22,-78.99
9933.0,0.89,0.43,-0.97,0.1,-0.98,0.16,0.0,-78.24,-79.03
10000.0,0.89,0.36,-1.03,0.09,-0.98,0.17,0.0,-78.24,-79.02
10065.0,0.88,0.36,-1.06,0.1,-0.98,0.17,0.0,-78.22,-78.98
10132.0,0.85,0.41,-1.0,0.1,-0.98,0.16,0.0,-78.22,-78.98
10198.0,0.84,0.45,-1.02,0.1,-0.98,0.16,0.0,-78.23,-79.0
10265.0,0.86,0.4,-0.98,0.11,-0.98,0.16,0.0,-78.22,-78.99
10332.0,0.87,0.39,-0.99,0.1,-0.98,0.16,0.0,-78.23,-79.0
10397.0,0.87,0.36,-1.05,0.1,-0.98,0.17,0.0,-78.2,-78.94
10465.0,0.85,0.42,-1.07,0.1,-0.98,0.16,0.0,-78.2,-78.95
10531.0,0.85,0.4,-1.05,0.11,-0.98,0.16,0.0,-78.2,-78.94
10597.0,0.85,0.4,-1.04,0.11,-0.98,0.17,0.0,-78.16,-78.85
10662.0,0.85,0.37,-0.98,0.11,-0.98,0.16,0.0,-78.14,-78.82
10729.0,0.88,0.31,-0.94,0.11,-0.98,0.16,0.0,-78.14,-78.83
10797.0,0.9,0.36,-0.95,0.1,-0.98,0.17,0.0,-78.1,-78.75
10862.0,0.87,0.31,-0.86,0.11,-0.98,0.16,0.0,-78.11,-78.78
10929.0,0.94,0.28,-0.88,0.11,-0.98,0.16,0.0,-78.1,-78.76
10996.0,0.89,0.33,-0.87,0.1,-0.98,0.17,0.0,-78.09,-78.76
11061.0,0.9,0.41,-0.91,0.09,-0.98,0.16,0.0,-78.11,-78.82
11128.0,0.85,0.51,-0.97,0.1,-0.98,0.16,0.0,-78.12,-78.85
11194.0,0.87,0.44,-0.94,0.1,-0.98,0.17,0.0,-78.1,-78.81
11260.0,0.85,0.37,-0.92,0.1,-0.98,0.17,0.0,-78.09,-78.79
11328.0,0.86,0.3,-0.88,0.1,-0.98,0.16,0.0,-78.08,-78.78
11394.0,0.85,0.42,-0.92,0.1,-0.97,0.16,0.0,-78.08,-78.78
11460.0,0.85,0.44,-0.93,0.1,-0.98,0.16,0.0,-78.09,-78.81
11528.0,0.83,0.4,-0.93,0.1,-0.98,0.16,0.0,-78.1,-78.84
11591.0,0.86,0.34,-0.91,0.1,-0.98,0.16,0.0,-78.12,-78.87
11660.0,0.89,0.36,-0.95,0.1,-0.98,0.16,0.0,-78.12,-78.89
11725.0,0.85,0.34,-0.93,0.1,-0.98,0.16,0.0,-78.12,-78.89
11792.0,0.85,0.35,-0.95,0.1,-0.98,0.16,0.0,-78.13,-78.92
11859.0,0.89,0.37,-0.95,0.1,-0.98,0.16,0.0,-78.13,-78.9
11925.0,0.85,0.35,-0.97,0.1,-0.98,0.16,0.0,-78.15,-78.96
11992.0,0.85,0.44,-0.98,0.1,-0.98,0.16,0.0,-78.16,-78.98
12057.0,0.85,0.37,-0.91,0.11,-0.97,0.16,0.0,-78.14,-78.92
12125.0,0.86,0.33,-0.9,0.1,-0.98,0.16,0.0,-78.16,-78.96
12191.0,0.85,0.38,-0.91,0.1,-0.98,0.16,0.0,-78.19,-79.03
12257.0,0.82,0.48,-0.94,0.1,-0.98,0.16,0.0,-78.21,-79.05
12323.0,0.85,0.45,-0.92,0.1,-0.98,0.16,0.0,-78.22,-79.07
12391.0,0.86,0.32,-0.89,0.1,-0.98,0.16,0.0,-78.23,-79.08
12456.0,0.86,0.31,-0.9,0.1,-0.98,0.17,0.0,-78.21,-79.04
12523.0,0.85,0.33,-0.88,0.1,-0.98,0.16,0.0,-78.22,-79.05
12589.0,0.86,0.34,-0.88,0.09,-0.98,0.16,0.0,-78.25,-79.1
12656.0,0.85,0.37,-0.88,0.1,-0.98,0.16,0.0,-78.27,-79.14
12723.0,0.83,0.38,-0.9,0.1,-0.97,0.16,0.0,-78.27,-79.12
12788.0,0.86,0.38,-0.92,0.09,-0.99,0.16,0.0,-78.28,-79.15
12855.0,0.89,0.37,-0.93,0.09,-0.98,0.16,0.0,-78.3,-79.17
12922.0,0.88,0.4,-0.94,0.1,-0.98,0.16,0.0,-78.3,-79.17
12988.0,0.89,0.4,-0.92,0.1,-0.98,0.17,0.0,-78.29,-79.13
13054.0,0.9,0.37,-0.92,0.09,-0.98,0.16,0.0,-78.31,-79.18
13120.0,0.89,0.38,-0.95,0.09,-0.98,0.16,0.0,-78.33,-79.22
13188.0,0.88,0.41,-0.99,0.1,-0.98,0.16,0.0,-78.33,-79.21
13254.0,0.91,0.38,-0.98,0.09,-0.98,0.16,0.0,-78.35,-79.25
13320.0,0.89,0.4,-0.98,0.1,-0.98,0.16,0.0,-78.36,-79.24
13386.0,0.9,0.44,-0.98,0.09,-0.98,0.16,0.0,-78.36,-79.26
13454.0,0.9,0.37,-0.95,0.1,-0.98,0.16,0.0,-78.35,-79.21
13519.0,0.92,0.31,-0.95,0.1,-0.98,0.17,0.0,-78.34,-79.18
13586.0,0.92,0.35,-0.98,0.1,-0.98,0.16,0.0,-78.33,-79.17
13651.0,0.88,0.43,-1.01,0.1,-0.98,0.16,0.0,-78.35,-79.19
13719.0,0.89,0.44,-1.01,0.1,-0.98,0.17,0.0,-78.32,-79.12
13786.0,0.89,0.43,-0.97,0.1,-0.98,0.17,0.0,-78.3,-79.07
13851.0,0.85,0.29,-0.95,0.1,-0.97,0.17,0.0,-78.27,-79.0
13917.0,0.87,0.31,-0.94,0.09,-0.98,0.17,0.0,-78.27,-79.0
13985.0,0.85,0.4,-0.95,0.11,-0.98,0.16,0.0,-78.25,-78.97
14051.0,0.86,0.41,-0.92,0.09,-0.97,0.17,0.0,-78.24,-78.94
14116.0,0.88,0.34,-0.92,0.1,-0.98,0.16,0.0,-78.25,-78.97
14183.0,0.84,0.36,-0.92,0.1,-0.98,0.16,0.0,-78.26,-78.99
14251.0,0.84,0.41,-0.95,0.1,-0.98,0.16,0.0,-78.26,-79.01
14317.0,0.84,0.4,-0.92,0.1,-0.98,0.16,0.0,-78.26,-79.01
14383.0,0.84,0.34,-0.92,0.1,-0.98,0.16,0.0,-78.27,-79.02
14449.0,0.83,0.36,-0.91,0.09,-0.98,0.16,0.0,-78.3,-79.1
14517.0,0.85,0.38,-0.92,0.1,-0.98,0.16,0.0,-78.32,-79.14
14582.0,0.85,0.37,-0.94,0.09,-0.98,0.16,0.0,-78.36,-79.22
14649.0,0.87,0.37,-0.94,0.1,-0.98,0.16,0.0,-78.34,-79.16
14714.0,0.86,0.34,-0.91,0.1,-0.98,0.16,0.0,-78.35,-79.18
14782.0,0.88,0.38,-0.9,0.09,-0.98,0.16,0.0,-78.37,-79.23
14849.0,0.85,0.25,-0.85,0.1,-0.98,0.16,0.0,-78.36,-79.19
14914.0,0.88,0.31,-0.86,0.09,-0.98,0.16,0.0,-78.39,-79.26
14981.0,0.91,0.31,-0.88,0.1,-0.98,0.16,0.0,-78.39,-79.24
15048.0,0.92,0.35,-0.9,0.09,-0.98,0.16,0.0,-78.39,-79.24
15114.0,0.89,0.37,-0.95,0.09,-0.98,0.16,0.0,-78.41,-79.27
15180.0,0.88,0.44,-0.98,0.1,-0.98,0.16,0.0,-78.41,-79.27
15246.0,0.89,0.4,-0.97,0.1,-0.98,0.17,0.0,-78.38,-79.2
15313.0,0.86,0.4,-0.92,0.09,-0.98,0.16,0.0,-78.38,-79.19
15380.0,0.88,0.34,-0.92,0.09,-0.98,0.16,0.0,-78.38,-79.19
15446.0,0.86,0.39,-0.94,0.09,-0.98,0.16,0.0,-78.41,-79.24
15512.0,0.85,0.37,-0.92,0.1,-0.98,0.16,0.0,-78.41,-79.25
15580.0,0.86,0.36,-0.98,0.09,-0.98,0.16,0.0,-78.43,-79.29
15645.0,0.85,0.39,-0.98,0.1,-0.98,0.16,0.0,-78.43,-79.26
15712.0,0.87,0.4,-0.97,0.1,-0.98,0.16,0.0,-78.42,-79.25
15777.0,0.87,0.37,-0.95,0.09,-0.98,0.16,0.0,-78.43,-79.25
15845.0,0.85,0.38,-0.92,0.09,-0.98,0.16,0.0,-78.44,-79.26
15911.0,0.87,0.4,-0.92,0.09,-0.98,0.16,0.0,-78.44,-79.28
15977.0,0.86,0.37,-0.89,0.09,-0.98,0.16,0.0,-78.45,-79.27
16044.0,0.87,0.27,-0.9,0.1,-0.98,0.16,0.0,-78.45,-79.28
16111.0,0.83,0.34,-0.92,0.09,-0.98,0.16,0.0,-78.47,-79.31
16177.0,0.83,0.5,-0.92,0.1,-0.98,0.16,0.0,-78.44,-79.23
16243.0,0.85,0.31,-0.89,0.09,-0.98,0.16,0.0,-78.46,-79.29
16309.0,0.85,0.31,-0.94,0.1,-0.98,0.16,0.0,-78.47,-79.29
16376.0,0.85,0.35,-0.95,0.09,-0.98,0.16,0.0,-78.5,-79.35
16443.0,0.84,0.6,-1.08,0.09,-0.99,0.16,0.0,-78.52,-79.39
16508.0,0.87,0.95,-1.26,0.1,-0.98,0.15,0.0,-78.53,-79.4
16576.0,0.78,0.46,-1.03,0.11,-0.98,0.15,0.0,-78.52,-79.36
16643.0,0.84,0.55,-0.95,0.09,-0.98,0.15,0.0,-78.54,-79.41
16708.0,0.89,0.34,-0.94,0.09,-0.98,0.16,0.0,-78.55,-79.41
16775.0,0.9,0.31,-0.87,0.1,-0.98,0.16,0.0,-78.55,-79.41
16840.0,0.89,0.28,-0.9,0.1,-0.98,0.16,0.0,-78.55,-79.39
16908.0,0.89,0.28,-0.94,0.09,-0.98,0.16,0.0,-78.55,-79.38
16974.0,0.87,0.36,-0.99,0.1,-0.98,0.16,0.0,-78.54,-79.35
17040.0,0.88,0.34,-1.0,0.09,-0.98,0.15,0.0,-78.56,-79.41
17107.0,0.85,0.4,-0.99,0.1,-0.98,0.15,0.0,-78.57,-79.41
17174.0,0.79,0.44,-0.92,0.1,-0.98,0.16,0.0,-78.56,-79.37
17240.0,0.79,0.25,-0.87,0.11,-0.98,0.16,0.0,-78.55,-79.33
17306.0,0.85,0.41,-0.95,0.07,-0.98,0.15,0.0,-78.61,-79.49
17372.0,0.89,0.33,-1.41,0.09,-0.99,0.15,0.0,-78.66,-79.59
17439.0,0.82,0.21,-1.34,0.12,-0.98,0.16,0.0,-78.6,-79.44
17505.0,0.82,0.41,-1.01,0.1,-0.98,0.14,0.0,-78.65,-79.54
17571.0,0.83,0.73,-1.14,0.09,-0.99,0.15,0.0,-78.7,-79.64
17637.0,0.87,0.6,-1.08,0.12,-0.98,0.16,0.0,-78.63,-79.45
17703.0,0.98,0.11,-0.69,0.13,-0.98,0.15,0.0,-78.56,-79.28
17771.0,0.98,0.14,-0.63,0.07,-0.98,0.15,0.0,-78.6,-79.41
17837.0,0.98,0.13,-0.88,0.12,-0.97,0.15,0.0,-78.54,-79.27
17902.0,0.98,0.3,-0.64,0.08,-0.98,0.16,0.0,-78.57,-79.34
17970.0,0.92,0.59,-0.92,0.1,-0.97,0.16,0.0,-78.55,-79.31
18036.0,0.94,0.81,-1.15,0.07,-0.98,0.15,0.0,-78.6,-79.44
18102.0,0.98,0.6,-1.28,0.12,-0.98,0.15,0.0,-78.57,-79.36
18168.0,1.04,0.27,-0.91,0.11,-0.98,0.17,0.0,-78.49,-79.2
18234.0,0.86,0.09,-0.82,0.1,-0.97,0.17,0.0,-78.45,-79.09
18301.0,0.89,0.53,-0.91,0.09,-0.99,0.16,0.0,-78.46,-79.15
18367.0,0.92,0.37,-0.85,0.11,-0.99,0.16,0.0,-78.44,-79.1
18434.0,1.02,0.17,-0.74,0.11,-0.98,0.16,0.0,-78.4,-79.05
18499.0,0.82,-0.18,-0.69,0.09,-0.98,0.16,0.0,-78.42,-79.09
18566.0,0.83,0.54,-1.01,0.07,-0.99,0.16,0.0,-78.46,-79.21
18633.0,0.78,1.08,-1.3,0.1,-0.98,0.16,0.0,-78.45,-79.16
18699.0,0.75,0.29,-0.88,0.11,-0.97,0.16,0.0,-78.4,-79.05
18765.0,0.66,0.76,-1.07,0.05,-0.98,0.16,0.0,-78.5,-79.27
18833.0,0.89,0.38,-1.51,0.11,-0.99,0.15,0.0,-78.5,-79.27
18898.0,1.03,0.1,-0.74,0.15,-0.97,0.17,0.0,-78.3,-78.83
18964.0,0.97,0.18,-0.23,0.1,-0.98,0.15,0.0,-78.31,-78.89
19031.0,0.91,0.44,-0.76,0.05,-0.99,0.15,0.0,-78.43,-79.18
19096.0,0.95,0.4,-1.26,0.1,-0.98,0.16,0.0,-78.44,-79.2
19164.0,1.02,0.3,-1.08,0.11,-0.97,0.17,0.0,-78.36,-79.04
19230.0,0.95,0.11,-0.89,0.1,-0.98,0.16,0.0,-78.34,-79.02
19296.0,0.82,0.18,-0.87,0.1,-0.98,0.17,0.0,-78.31,-78.94
19361.0,0.77,0.28,-0.86,0.09,-0.98,0.17,0.0,-78.32,-78.98
19428.0,0.89,0.54,-0.91,0.1,-0.99,0.16,0.0,-78.32,-78.99
19495.0,0.88,0.57,-0.86,0.1,-0.98,0.16,0.0,-78.3,-78.96
19561.0,0.83,0.35,-0.79,0.09,-0.98,0.16,0.0,-78.32,-79.02
19627.0,0.94,0.44,-0.89,0.09,-0.98,0.15,0.0,-78.35,-79.1
19693.0,1.01,0.5,-0.98,0.09,-0.98,0.16,0.0,-78.37,-79.15
19759.0,0.94,0.21,-0.8,0.1,-0.98,0.17,0.0,-78.33,-79.05
19826.0,0.85,0.32,-0.68,0.1,-0.98,0.16,0.0,-78.32,-79.04
19892.0,0.78,0.18,-0.67,0.08,-0.98,0.16,0.0,-78.35,-79.1
19958.0,0.8,0.37,-0.75,0.09,-0.98,0.16,0.0,-78.39,-79.19
20026.0,0.84,0.31,-0.8,0.08,-0.98,0.16,0.0,-78.42,-79.27
20092.0,0.85,0.37,-0.85,0.09,-0.98,0.16,-0.01,-78.43,-79.29
20158.0,0.88,0.31,-0.85,0.08,-0.98,0.16,-0.03,-78.45,-79.32
20226.0,0.79,0.33,-0.87,0.08,-0.98,0.16,-0.06,-78.48,-79.37
20292.0,0.85,0.46,-0.95,0.08,-0.98,0.15,-0.12,-78.54,-79.5
20358.0,0.79,0.59,-1.04,0.08,-0.98,0.17,-0.12,-78.54,-79.46
20424.0,0.86,0.48,-1.04,0.1,-0.98,0.16,-0.1,-78.52,-79.4
20490.0,0.82,0.27,-0.79,0.08,-0.98,0.16,-0.12,-78.55,-79.44
20557.0,0.82,0.31,-0.83,0.07,-0.98,0.16,-0.17,-78.59,-79.53
20624.0,0.85,0.32,-0.93,0.08,-0.99,0.16,-0.2,-78.62,-79.58
20689.0,0.86,0.4,-0.92,0.09,-0.98,0.15,-0.24,-78.67,-79.66
20757.0,0.87,0.44,-0.95,0.08,-0.98,0.15,-0.29,-78.71,-79.75
20824.0,0.86,0.35,-0.92,0.08,-0.98,0.17,-0.28,-78.7,-79.7
20889.0,0.87,0.37,-0.93,0.09,-0.98,0.16,-0.29,-78.71,-79.68
20956.0,0.89,0.27,-0.88,0.08,-0.98,0.16,-0.3,-78.73,-79.71
21021.0,0.89,0.39,-0.95,0.08,-0.98,0.16,-0.33,-78.76,-79.75
21090.0,0.85,0.44,-0.99,0.08,-0.98,0.15,-0.37,-78.79,-79.81
21155.0,0.86,0.3,-0.99,0.09,-0.98,0.16,-0.37,-78.8,-79.8
21222.0,0.91,0.29,-0.93,0.08,-0.98,0.16,-0.38,-78.8,-79.78
21289.0,0.92,0.33,-1.0,0.08,-0.98,0.15,-0.4,-78.82,-79.82
21355.0,0.88,0.44,-1.04,0.08,-0.98,0.16,-0.39,-78.81,-79.77
21422.0,0.96,0.4,-1.04,0.09,-0.98,0.16,-0.38,-78.81,-79.74
21489.0,0.9,0.45,-1.02,0.09,-0.98,0.16,-0.37,-78.79,-79.7
21556.0,0.85,0.33,-0.95,0.09,-0.98,0.17,-0.34,-78.76,-79.62
21621.0,0.82,0.47,-0.97,0.09,-0.98,0.15,-0.37,-78.79,-79.67
21688.0,0.89,0.41,-0.96,0.08,-0.98,0.16,-0.38,-78.81,-79.69
21753.0,0.82,0.4,-0.94,0.09,-0.98,0.16,-0.37,-78.8,-79.65
21822.0,0.78,0.5,-0.92,0.08,-0.98,0.16,-0.37,-78.79,-79.62
21888.0,0.86,0.45,-0.97,0.08,-0.98,0.15,-0.4,-78.82,-79.7
21953.0,0.82,0.34,-1.06,0.08,-0.98,0.15,-0.44,-78.86,-79.77
22022.0,0.81,0.47,-1.07,0.1,-0.98,0.15,-0.44,-78.86,-79.75
22087.0,0.93,0.28,-0.93,0.09,-0.99,0.16,-0.4,-78.82,-79.66
22154.0,0.89,0.23,-0.9,0.08,-0.98,0.15,-0.43,-78.86,-79.72
22221.0,0.86,0.32,-0.98,0.09,-0.98,0.15,-0.45,-78.88,-79.76
22287.0,0.88,0.45,-0.96,0.09,-0.98,0.16,-0.43,-78.85,-79.7
22353.0,0.89,0.47,-0.98,0.09,-0.98,0.15,-0.44,-78.86,-79.71
22420.0,0.89,0.35,-0.98,0.08,-0.98,0.16,-0.44,-78.86,-79.71
22486.0,0.89,0.37,-0.98,0.09,-0.98,0.16,-0.43,-78.86,-79.68
22553.0,0.89,0.37,-0.99,0.09,-0.98,0.16,-0.43,-78.85,-79.68
22620.0,0.86,0.37,-1.0,0.09,-0.98,0.16,-0.42,-78.85,-79.66
22686.0,0.88,0.33,-0.96,0.09,-0.98,0.16,-0.42,-78.84,-79.64
22754.0,0.89,0.31,-0.97,0.09,-0.98,0.16,-0.41,-78.83,-79.62
22820.0,0.82,0.29,-1.07,0.08,-0.98,0.16,-0.42,-78.84,-79.63
22886.0,0.87,0.51,-0.86,0.09,-0.98,0.16,-0.41,-78.83,-79.61
22953.0,0.76,0.5,-0.75,0.09,-0.98,0.15,-0.42,-78.84,-79.63
23020.0,0.82,0.32,-0.77,0.08,-0.98,0.15,-0.46,-78.89,-79.73
23086.0,0.93,0.21,-0.63,0.09,-0.98,0.16,-0.45,-78.88,-79.7
23154.0,1.07,0.37,-0.57,0.07,-0.99,0.14,-0.52,-78.94,-79.87
23220.0,1.16,0.37,-0.71,0.09,-0.98,0.15,-0.52,-78.94,-79.87
23286.0,1.29,0.2,-0.6,0.07,-0.98,0.16,-0.51,-78.93,-79.87
23352.0,1.34,0.15,-0.68,0.09,-0.98,0.16,-0.44,-78.86,-79.74
23418.0,1.48,-0.14,-0.6,0.05,-0.98,0.18,-0.39,-78.81,-79.66
23486.0,1.61,0.07,-0.5,0.1,-0.98,0.15,-0.34,-78.77,-79.61
23553.0,1.98,-0.76,0.02,0.03,-0.99,0.2,-0.22,-78.64,-79.41
23618.0,1.92,0.16,0.13,0.08,-0.97,0.17,-0.11,-78.53,-79.25
23686.0,2.46,-1.36,0.69,0.09,-0.96,0.16,0.01,-78.41,-79.12
23752.0,2.46,-2.11,0.82,0.1,-0.96,0.24,-0.39,-78.02,-78.35
23818.0,2.39,-2.18,1.19,0.04,-0.99,0.26,-0.74,-77.66,-77.69
23886.0,1.66,-1.63,1.37,-0.02,-0.99,0.25,-0.52,-77.44,-77.32
23952.0,1.02,0.69,1.62,-0.03,-0.96,0.25,-0.31,-77.22,-76.93
24018.0,1.44,1.9,2.05,0.01,-0.96,0.25,-0.52,-77.0,-76.59
24086.0,1.52,1.56,3.32,-0.02,-0.98,0.24,-0.39,-76.87,-76.46
24153.0,0.97,1.98,4.2,-0.11,-1.01,0.3,-0.03,-76.51,-75.77
24218.0,0.48,1.87,4.81,-0.17,-1.03,0.24,0.19,-76.29,-75.37
24285.0,0.18,3.44,4.05,-0.25,-1.0,0.24,0.57,-75.91,-74.61
24350.0,-0.67,4.93,4.31,-0.18,-0.99,0.3,0.92,-75.56,-73.89
24418.0,0.95,7.79,6.81,0.04,-1.11,0.26,0.89,-75.59,-74.23
24484.0,3.92,15.16,11.1,0.04,-1.53,0.17,0.59,-75.89,-75.44
24550.0,-5.55,12.78,13.33,-0.41,-1.04,0.42,1.33,-75.16,-73.31
24617.0,-1.41,2.43,4.79,-0.52,-0.39,0.21,4.08,-72.41,-66.95
24684.0,0.53,8.67,-6.27,-0.05,-0.4,-0.07,3.77,-72.71,-68.31
24750.0,4.3,-12.53,-14.24,-0.21,-0.62,0.1,4.28,-72.21,-67.99
24816.0,2.31,-12.03,-23.32,-0.14,-0.8,0.15,4.18,-72.3,-68.88
24882.0,5.42,-9.07,-32.58,-0.13,-1.17,0.16,3.97,-72.51,-70.21
24949.0,1.63,-15.66,-32.92,-0.49,-1.52,0.27,4.25,-72.23,-69.94
25016.0,2.24,-3.3,-20.84,-0.24,-1.06,0.21,4.3,-72.18,-70.26
25081.0,1.14,4.73,4.85,0.28,-0.96,-0.04,4.27,-72.21,-70.63
25149.0,1.53,-0.6,9.22,1.03,-0.95,0.24,2.05,-69.98,-65.72
25216.0,5.92,-8.05,11.15,-0.08,-1.14,0.15,2.49,-70.43,-67.77
25282.0,1.63,3.16,7.3,-0.08,-1.04,0.29,2.63,-70.57,-68.51
25350.0,-0.58,-0.88,5.27,-0.08,-1.0,0.2,3.19,-71.12,-69.97
25416.0,1.14,2.49,3.34,0.05,-0.94,0.25,3.36,-71.29,-70.58
25482.0,1.06,2.52,3.34,0.02,-0.94,0.25,3.57,-71.51,-71.24
25550.0,1.64,1.54,3.08,-0.1,-0.98,0.24,3.71,-71.64,-71.73
25614.0,0.95,3.44,2.08,0.02,-0.99,0.27,3.85,-71.79,-72.12
25682.0,0.41,1.4,4.73,0.1,-0.98,0.29,3.87,-71.81,-72.16
25750.0,-1.33,1.79,7.3,-0.1,-0.99,0.25,4.17,-72.1,-72.68
25815.0,0.53,4.18,8.48,-0.08,-1.1,0.14,4.8,-72.73,-74.12
25882.0,0.6,7.05,10.38,-0.19,-1.25,0.21,5.06,-73.0,-74.63
25949.0,0.27,18.1,11.23,0.41,-1.41,0.38,4.71,-72.65,-73.65
26014.0,-6.85,3.97,15.65,-0.31,-0.98,0.67,5.68,-71.68,-70.69
26082.0,-7.15,-3.77,7.04,-0.61,-0.21,0.27,9.01,-68.35,-62.36
26148.0,-3.49,-0.76,-6.28,0.04,-0.36,-0.09,8.35,-69.01,-64.25
26214.0,-0.62,-15.67,-15.27,-0.28,-0.58,0.16,8.9,-68.47,-63.45
26281.0,-1.59,-14.59,-25.43,-0.23,-0.76,0.24,8.94,-68.42,-63.73
26346.0,-1.31,-12.06,-34.57,-0.16,-1.08,0.2,8.29,-69.08,-65.65
26414.0,2.51,-10.7,-34.94,-0.47,-1.56,0.3,8.35,-69.01,-66.09
26479.0,5.57,-3.89,-17.25,-0.33,-1.08,0.34,8.88,-68.48,-65.66
26546.0,-1.27,-7.35,7.89,0.05,-0.73,0.14,8.09,-69.28,-67.7
26613.0,16.22,1.96,4.0,0.67,-1.67,-0.84,6.21,-67.41,-64.95
26680.0,1.13,-4.27,11.53,0.01,-0.64,0.39,5.53,-66.72,-63.7
26745.0,4.11,4.52,5.28,0.14,-1.13,0.13,6.25,-67.44,-66.04
26813.0,-0.14,1.37,4.71,-0.01,-0.93,0.14,7.24,-68.43,-68.47
26877.0,1.44,0.59,5.57,0.14,-0.95,0.22,7.58,-68.78,-69.39
26945.0,0.9,0.59,6.76,-0.02,-0.95,0.24,8.02,-69.21,-70.41
27012.0,4.47,0.11,6.08,-0.1,-0.99,0.24,8.16,-69.36,-70.99
27077.0,1.11,0.23,5.35,-0.14,-1.02,0.28,8.34,-69.53,-71.3
27145.0,-1.84,0.37,5.11,-0.09,-1.04,0.19,9.07,-70.26,-72.64
27211.0,-1.7,0.82,6.67,-0.11,-1.05,0.27,9.5,-70.69,-73.21
27277.0,-1.63,0.35,9.02,-0.13,-1.16,0.25,10.01,-71.2,-73.96
27344.0,2.17,6.24,9.64,0.24,-1.49,0.39,9.99,-71.18,-73.81
27409.0,-9.47,4.42,13.21,-0.07,-1.25,0.57,9.83,-71.35,-73.07
27476.0,-4.82,-4.2,12.2,-0.51,-0.71,0.2,10.87,-70.31,-70.02
27543.0,-4.49,-8.97,-0.47,-0.15,-0.47,0.12,10.75,-70.42,-69.92
27609.0,-0.24,-11.63,-13.69,-0.27,-0.51,0.27,11.93,-69.25,-67.22
27676.0,-3.09,-14.53,-24.26,-0.18,-0.68,0.26,12.04,-69.13,-66.89
27743.0,-0.71,-18.16,-30.2,-0.42,-1.16,0.07,11.94,-69.23,-67.31
27809.0,-0.66,-8.55,-29.86,-0.44,-1.18,0.35,12.22,-68.95,-66.81
27877.0,0.21,23.29,-24.22,-0.19,-1.04,0.3,12.06,-69.11,-67.42
27942.0,15.95,15.76,-7.34,-2.0,-2.0,0.86,14.93,-66.25,-62.34
28009.0,-12.18,-11.08,14.43,1.76,-0.54,0.9,12.09,-63.41,-55.1
28077.0,-12.43,1.6,12.05,-0.05,-1.47,0.09,14.46,-65.78,-60.42
28142.0,7.58,2.22,6.98,-0.34,-1.15,0.55,15.28,-64.96,-59.75
28210.0,-6.47,-1.8,4.52,-0.05,-0.96,0.37,14.62,-65.62,-61.29
28277.0,0.76,0.82,5.04,0.13,-0.84,0.35,14.65,-65.59,-61.75
28342.0,3.92,0.95,4.95,0.08,-0.92,0.32,14.58,-65.65,-62.65
28409.0,1.5,1.5,4.88,0.03,-0.96,0.39,14.51,-65.72,-63.26
28477.0,0.45,6.66,5.21,-0.06,-0.94,0.36,14.31,-65.92,-64.01
28541.0,1.38,3.21,5.34,-0.09,-0.96,0.41,14.37,-65.87,-64.2
28609.0,2.02,4.53,4.22,-0.21,-1.01,0.27,14.13,-66.11,-65.1
28676.0,-0.88,6.29,3.85,-0.16,-0.93,0.36,14.0,-66.23,-65.4
28741.0,2.4,8.15,7.11,0.01,-1.03,0.31,13.66,-66.58,-66.49
28809.0,7.88,15.68,10.64,0.2,-1.59,0.22,13.25,-66.99,-68.15
28873.0,1.49,15.35,13.24,-0.33,-1.25,0.69,13.94,-66.3,-66.52
28941.0,5.18,11.47,3.15,-0.3,-0.32,0.5,16.87,-63.36,-60.08
29008.0,2.85,20.57,-9.23,-0.08,-0.42,-0.35,18.03,-62.21,-57.99
29073.0,13.57,-4.02,-17.4,0.0,-0.56,-0.11,17.67,-62.56,-60.47
29140.0,0.31,-9.03,-28.18,-0.22,-0.79,0.25,17.36,-62.88,-61.45
29207.0,-2.64,-1.89,-37.95,-0.14,-1.14,0.33,16.52,-63.72,-63.31
29273.0,-0.98,-1.61,-34.79,-0.49,-1.49,0.32,16.13,-64.11,-64.17
29340.0,2.39,-3.99,-16.16,0.01,-0.91,0.26,15.6,-64.63,-65.58
29405.0,2.44,-13.7,13.47,0.77,-0.94,0.65,13.94,-62.97,-61.8
29473.0,-10.07,-7.51,7.05,-0.35,-1.04,-0.33,14.74,-63.76,-62.88
29541.0,7.48,0.37,9.37,-0.02,-0.92,0.36,14.61,-63.63,-63.33
29605.0,3.02,3.24,7.49,0.35,-0.9,0.24,14.51,-63.54,-63.4
29673.0,2.17,5.63,4.12,0.22,-1.0,0.25,14.94,-63.96,-64.58
29741.0,4.05,4.34,5.38,0.12,-0.98,0.27,15.34,-64.36,-65.8
29805.0,2.85,4.29,6.08,0.03,-0.95,0.29,15.74,-64.77,-66.84
29873.0,1.98,3.32,6.56,-0.1,-0.97,0.29,16.16,-65.19,-67.75
29939.0,3.21,4.95,6.46,-0.16,-1.09,0.3,16.46,-65.49,-68.46
30005.0,-2.39,4.48,6.94,-0.14,-1.04,0.34,16.97,-66.0,-69.1
30073.0,-1.87,2.37,10.07,-0.16,-1.15,0.3,17.63,-66.65,-70.12
30139.0,4.31,11.55,12.2,0.49,-1.67,0.46,17.45,-66.48,-69.72
30205.0,-14.37,3.8,19.47,-0.63,-0.97,0.49,17.7,-66.23,-67.55
30273.0,-6.09,-1.89,6.6,-0.51,-0.2,0.12,20.52,-63.41,-60.24
30338.0,-3.86,3.08,-9.69,0.12,-0.22,-0.18,19.5,-62.39,-57.87
30405.0,5.13,-6.34,-21.85,-0.21,-0.51,0.04,19.52,-62.4,-58.86
30473.0,1.01,-8.81,-32.67,-0.17,-0.8,0.21,20.11,-62.99,-60.71
30537.0,4.81,-2.99,-41.2,-0.09,-1.42,0.26,20.94,-63.82,-63.34
30605.0,-7.88,7.02,-31.14,-0.37,-1.27,0.44,21.55,-64.43,-64.11
30671.0,2.23,4.08,4.4,-0.24,-1.01,0.64,22.29,-63.69,-62.6
30737.0,2.32,-17.21,3.57,0.15,-0.46,-1.43,18.94,-60.34,-55.12
30806.0,-5.72,-6.6,13.27,-0.21,-1.0,0.52,18.57,-60.72,-56.04
30871.0,-5.16,4.01,7.31,-0.15,-1.14,0.24,17.16,-62.12,-59.37
30938.0,-3.41,-2.62,6.56,0.03,-0.97,0.28,16.14,-63.15,-61.77
31005.0,0.95,0.99,6.39,0.11,-0.97,0.21,15.26,-64.02,-64.03
31070.0,3.28,1.63,7.34,-0.09,-0.95,0.21,14.61,-64.67,-65.83
31137.0,1.32,0.6,6.69,-0.22,-1.0,0.27,14.28,-65.01,-66.6
31206.0,1.67,4.4,5.21,-0.2,-1.04,0.31,13.98,-65.3,-67.25
31269.0,-1.24,2.37,7.12,0.04,-1.11,0.29,13.2,-66.09,-68.76
31338.0,0.22,2.58,12.57,0.16,-1.52,0.23,12.26,-67.02,-70.66
31406.0,-6.57,10.43,16.79,0.04,-1.49,0.64,12.65,-67.41,-70.56
31470.0,-7.23,-5.44,17.98,-0.31,-0.7,0.41,13.15,-66.9,-68.39
31538.0,2.33,-2.34,-0.13,-0.34,-0.45,0.1,14.37,-65.68,-65.58
31605.0,1.56,-9.22,-11.67,-0.25,-0.45,-0.02,14.77,-65.28,-64.79
31670.0,2.99,-4.79,-23.74,-0.13,-0.61,0.11,14.34,-65.72,-66.13
31737.0,1.43,-5.11,-35.66,-0.18,-1.03,0.17,13.67,-66.38,-67.77
31802.0,3.58,-7.56,-38.65,-0.21,-1.46,0.32,13.27,-66.79,-68.88
31869.0,-8.31,0.95,-31.2,-0.14,-1.14,0.37,12.48,-67.57,-69.75
31937.0,0.98,6.62,0.14,0.16,-0.96,0.23,12.1,-67.95,-70.48
32002.0,-0.66,-1.73,7.56,1.05,-1.07,-0.11,10.56,-66.41,-66.54
32070.0,5.37,-5.38,15.54,-0.34,-1.33,0.49,10.92,-66.04,-66.16
32138.0,16.63,5.15,9.08,-0.05,-1.32,0.16,10.8,-66.16,-67.94
32202.0,0.14,0.16,7.78,-0.18,-0.99,0.34,10.63,-66.34,-68.17
32271.0,-5.46,2.69,4.33,0.05,-0.91,0.29,9.88,-67.09,-69.24
32338.0,0.87,2.98,4.59,-0.05,-0.91,0.23,9.34,-67.62,-70.34
32403.0,1.55,2.35,3.85,-0.06,-0.83,0.17,8.71,-68.26,-71.67
32471.0,3.76,5.49,4.05,-0.02,-0.98,0.32,8.67,-68.3,-71.72
32538.0,0.2,4.12,4.6,-0.06,-1.07,0.36,8.49,-68.48,-71.8
32603.0,-3.72,-1.29,7.16,-0.18,-1.13,0.2,7.7,-69.27,-72.96
32671.0,-4.06,0.28,8.38,-0.24,-1.01,0.26,7.32,-69.64,-73.08
32739.0,-3.31,5.21,8.06,-0.11,-1.02,0.21,6.61,-70.36,-74.08
32803.0,1.31,8.41,11.9,0.43,-1.49,0.38,6.43,-70.17,-73.37
32871.0,-14.73,-4.23,16.22,-0.49,-1.07,0.65,6.73,-69.87,-71.02
32935.0,-14.59,-20.66,8.38,-0.5,-0.35,0.09,8.29,-68.31,-65.98
33003.0,-11.05,-9.89,-3.82,-0.16,-0.23,0.05,8.59,-68.01,-64.58
33071.0,-3.98,-12.9,-13.81,-0.42,-0.51,0.2,9.73,-66.87,-61.95
33135.0,-4.8,-15.25,-22.29,-0.22,-0.87,0.35,9.59,-67.0,-62.39
33203.0,-4.48,-20.11,-28.01,-0.21,-1.16,0.44,9.31,-67.28,-63.17
33270.0,-0.42,-14.15,-27.81,-0.19,-1.19,0.54,9.49,-67.1,-63.17
33335.0,4.38,1.41,-27.52,-0.15,-1.17,0.42,9.63,-66.97,-63.68
33402.0,7.79,7.82,-18.28,0.06,-1.07,0.19,9.23,-67.37,-65.66
33471.0,11.21,3.11,-3.24,-0.13,-1.05,0.07,8.92,-67.68,-67.59
33534.0,2.45,-9.4,14.21,-0.5,-0.86,0.1,9.64,-66.96,-66.13
33603.0,-2.6,-14.85,7.26,0.13,-1.91,-0.54,9.01,-67.58,-67.45
33668.0,-6.69,0.39,11.22,0.04,-0.71,0.61,8.17,-66.74,-64.89
33735.0,1.12,5.23,6.82,0.37,-0.93,0.08,8.17,-66.74,-65.21
33803.0,4.33,5.63,3.55,0.17,-1.01,0.22,8.46,-67.03,-66.43
33867.0,5.97,7.66,4.95,0.26,-0.95,0.21,8.35,-66.92,-66.76
33935.0,3.18,3.51,6.38,0.02,-0.95,0.32,8.45,-67.02,-67.29
34003.0,1.44,4.36,6.09,-0.0,-0.94,0.33,8.6,-67.17,-67.73
34067.0,-1.84,1.18,5.97,-0.12,-0.96,0.28,9.08,-67.65,-68.63
34136.0,-0.09,-0.31,7.53,-0.11,-1.1,0.27,9.61,-68.18,-69.76
34203.0,2.15,7.21,8.92,-0.02,-1.16,0.15,10.49,-69.06,-71.84
34268.0,3.96,11.08,12.19,0.17,-1.51,0.33,10.75,-69.32,-72.48
34335.0,-8.8,0.1,16.8,-0.23,-1.32,0.75,10.91,-69.16,-70.97
34403.0,-2.5,-1.64,12.93,-0.61,-0.48,0.41,13.29,-66.77,-64.96
34467.0,-1.06,0.73,-3.99,-0.29,-0.4,0.07,14.19,-65.87,-62.97
34535.0,1.46,-6.83,-16.82,-0.29,-0.45,-0.01,14.9,-65.17,-61.76
34599.0,2.11,-7.68,-27.47,-0.17,-0.7,0.19,14.7,-65.36,-62.79
34667.0,0.35,-2.27,-37.58,-0.16,-1.1,0.29,14.17,-65.9,-64.34
34735.0,-0.45,-3.49,-37.53,-0.16,-1.55,0.41,13.58,-66.49,-65.86
34799.0,4.76,1.23,-19.2,-0.2,-1.13,0.32,13.52,-66.55,-66.48
34867.0,3.37,4.02,13.37,0.02,-0.95,-0.0,12.19,-67.88,-69.88
34935.0,36.56,9.5,3.58,0.3,-1.73,0.05,13.64,-66.43,-69.6
35000.0,-2.79,4.87,10.02,0.25,-0.45,0.8,11.16,-63.95,-63.19
35067.0,-4.36,4.04,7.88,0.33,-0.86,0.17,11.6,-64.39,-63.93
35132.0,-1.87,3.5,5.25,-0.05,-0.96,0.33,12.15,-64.94,-65.09
35200.0,0.57,2.02,5.14,0.01,-0.95,0.23,12.91,-65.7,-66.9
35267.0,3.92,5.72,5.9,0.07,-0.93,0.3,13.08,-65.87,-67.52
35332.0,4.78,5.73,5.85,-0.03,-0.98,0.27,13.39,-66.18,-68.48
35399.0,1.27,3.21,6.53,-0.13,-0.92,0.36,13.39,-66.19,-68.36
35467.0,0.9,2.77,5.98,-0.13,-1.08,0.22,14.08,-66.88,-69.81
35531.0,0.13,1.47,8.85,-0.1,-1.15,0.35,14.46,-67.26,-70.39
35600.0,2.71,8.72,11.8,0.35,-1.64,0.37,14.67,-67.47,-70.78
35667.0,-14.43,5.67,16.31,-0.46,-1.13,0.55,14.46,-67.68,-69.61
35732.0,2.53,-1.79,10.88,-0.64,-0.52,0.31,16.82,-65.32,-64.11
35800.0,1.63,-4.76,-3.85,-0.45,-0.5,0.11,18.19,-63.95,-61.19
35867.0,0.21,-8.97,-14.02,-0.23,-0.5,0.06,18.13,-64.01,-61.66
35932.0,-0.44,-9.38,-23.48,-0.12,-0.77,0.2,17.48,-64.66,-63.42
35999.0,0.18,-12.85,-30.44,-0.36,-1.28,0.42,17.35,-64.79,-63.87
36064.0,-2.1,-4.56,-29.75,-0.09,-1.27,0.28,16.38,-65.77,-66.07
36131.0,-0.78,6.43,-22.44,-0.02,-1.17,0.12,15.06,-67.08,-69.03
36199.0,-2.4,-1.34,-11.57,-0.02,-1.01,0.31,14.5,-67.64,-69.92
36263.0,4.6,3.05,4.92,-0.04,-0.96,0.07,13.57,-68.57,-72.25
36331.0,1.38,-3.76,10.85,0.44,-0.85,0.53,12.24,-67.25,-68.87
36399.0,-6.15,-14.29,6.35,0.45,-1.48,-0.43,12.63,-67.63,-69.04
36463.0,0.8,0.71,8.68,0.03,-0.74,0.52,11.68,-66.69,-66.75
36531.0,2.91,1.11,6.11,0.15,-1.03,0.1,12.44,-67.44,-68.77
36595.0,2.41,6.89,3.69,0.1,-0.96,0.23,12.82,-67.82,-69.74
36664.0,5.23,5.98,4.27,0.15,-0.95,0.28,12.76,-67.76,-69.85
36731.0,4.2,3.55,5.32,0.04,-0.97,0.34,12.7,-67.7,-69.87
36796.0,0.38,0.9,5.95,-0.11,-0.96,0.29,13.0,-68.01,-70.39
36864.0,-0.73,0.68,5.88,-0.09,-0.94,0.28,13.37,-68.38,-70.93
36931.0,-1.63,-0.28,5.24,-0.26,-0.95,0.24,13.54,-68.55,-70.91
36996.0,0.18,3.53,4.25,-0.19,-1.05,0.26,13.83,-68.84,-71.36
37063.0,0.49,5.37,5.46,-0.14,-1.06,0.34,13.95,-68.96,-71.41
37132.0,5.05,9.25,8.22,0.13,-1.35,0.33,14.08,-69.08,-71.9
37195.0,-1.9,11.15,11.21,-0.33,-1.24,0.49,14.28,-68.88,-70.96
37263.0,2.87,1.09,11.76,-0.38,-0.72,0.16,15.07,-68.08,-69.14
37327.0,-1.45,3.65,0.02,-0.51,-0.37,0.1,17.29,-65.87,-63.74
37395.0,0.33,-5.8,-10.63,-0.08,-0.51,-0.02,16.25,-66.91,-66.44
37464.0,0.57,-11.3,-19.49,-0.26,-0.82,0.15,16.07,-67.08,-66.97
37528.0,-1.9,-11.43,-25.56,-0.3,-1.03,0.26,15.84,-67.32,-67.37
37596.0,-1.24,-5.88,-28.44,-0.29,-1.22,0.27,15.44,-67.72,-68.21
37663.0,4.01,-1.57,-24.47,-0.14,-1.39,0.16,14.76,-68.4,-70.12
37728.0,6.07,-5.98,-13.29,-0.15,-1.2,0.29,14.69,-68.46,-70.62
37795.0,-2.16,1.75,2.33,-0.25,-0.86,0.05,14.2,-68.95,-71.34
37863.0,0.51,6.86,0.96,1.02,-0.98,-0.35,12.31,-67.06,-66.71
37927.0,2.9,2.62,7.02,0.29,-0.93,0.34,11.96,-66.71,-66.2
37995.0,1.66,-1.74,5.27,0.03,-0.97,0.18,12.75,-67.5,-68.24
38060.0,1.36,-0.75,4.6,0.02,-0.99,0.34,12.9,-67.65,-68.65
38127.0,1.3,2.27,3.73,0.1,-0.98,0.24,13.33,-68.08,-69.67
38196.0,1.68,2.36,3.18,0.09,-0.95,0.21,13.81,-68.56,-70.78
38260.0,2.77,3.27,2.73,0.05,-0.99,0.24,14.16,-68.91,-71.6
38328.0,1.21,3.27,3.34,0.02,-0.95,0.23,14.63,-69.37,-72.51
38395.0,0.82,1.33,3.84,-0.08,-0.96,0.25,14.93,-69.68,-72.97
38460.0,1.12,0.24,4.83,-0.02,-1.02,0.26,15.28,-70.03,-73.54
38528.0,1.21,2.25,6.66,0.03,-1.09,0.21,15.84,-70.59,-74.57
38596.0,-1.4,4.29,7.21,-0.31,-1.11,0.28,15.84,-70.59,-74.02
38661.0,0.76,10.57,7.41,-0.03,-1.29,0.21,15.18,-71.25,-75.26
38728.0,-1.29,8.82,7.7,-0.54,-0.73,0.22,16.49,-69.94,-71.66
38796.0,3.79,3.77,4.99,-0.65,-0.6,0.19,18.73,-67.7,-66.58
38860.0,-1.95,7.4,0.19,-0.5,-0.38,0.11,20.8,-65.63,-61.72
38928.0,2.21,4.24,-12.53,-0.15,-0.72,-0.17,20.47,-65.96,-63.13
38992.0,3.89,-3.05,-15.34,-0.26,-1.04,-0.04,20.01,-66.42,-64.87
39060.0,-0.93,-2.85,-14.73,-0.41,-1.02,0.11,19.88,-66.54,-65.27
39128.0,2.69,0.31,-15.18,-0.21,-1.03,0.12,19.34,-67.09,-66.93
39192.0,2.64,-3.68,-13.18,-0.12,-1.04,0.12,18.55,-67.87,-69.03
39260.0,-6.4,8.95,1.16,0.85,-0.73,-0.16,17.01,-66.33,-64.74
39327.0,1.98,-1.47,-0.76,0.04,-0.89,0.2,17.64,-66.96,-66.58
39392.0,0.87,-1.16,-1.23,-0.01,-0.98,0.15,18.58,-67.9,-68.9
39460.0,1.18,-0.05,-1.73,0.09,-0.99,0.14,19.39,-68.71,-70.8
39528.0,1.9,-0.5,-1.42,0.05,-1.0,0.19,20.0,-69.31,-72.16
39592.0,1.7,-0.09,-1.14,0.08,-0.98,0.16,20.62,-69.93,-73.45
39660.0,1.79,0.16,-1.11,0.05,-0.98,0.18,21.16,-70.47,-74.5
39729.0,1.26,0.13,-1.18,0.06,-0.98,0.18,21.67,-70.98,-75.37
39793.0,1.2,-0.03,-1.15,0.07,-0.98,0.19,22.1,-71.42,-76.02
39861.0,0.93,0.05,-1.15,0.08,-0.98,0.2,22.48,-71.79,-76.48
39929.0,0.87,0.2,-0.95,0.09,-0.98,0.19,22.84,-72.16,-76.91
39994.0,0.77,0.38,-0.56,0.09,-0.98,0.18,23.22,-72.54,-77.37
40061.0,0.85,0.45,-0.57,0.06,-0.98,0.18,23.62,-72.94,-77.87
40128.0,1.03,0.5,-0.87,0.06,-0.99,0.18,24.01,-73.33,-78.33
40194.0,0.98,0.54,-0.98,0.06,-0.98,0.18,24.33,-73.65,-78.65
40262.0,1.05,0.63,-0.96,0.08,-0.98,0.18,24.61,-73.92,-78.85
40328.0,0.82,0.27,-0.92,0.06,-0.98,0.2,24.85,-74.17,-78.97
40394.0,0.76,0.3,-0.88,0.07,-0.98,0.19,25.11,-74.43,-79.16
40462.0,0.84,0.44,-0.83,0.07,-0.98,0.19,25.33,-74.65,-79.24
40528.0,0.93,0.64,-0.94,0.05,-0.98,0.18,25.58,-74.9,-79.43
40595.0,0.93,0.6,-0.98,0.06,-0.98,0.19,25.77,-75.09,-79.5
40663.0,0.89,0.43,-0.92,0.05,-0.98,0.19,25.98,-75.3,-79.6
40729.0,0.86,0.35,-0.99,0.06,-0.98,0.19,26.15,-75.47,-79.64
40796.0,0.8,0.34,-0.95,0.06,-0.98,0.19,26.31,-75.63,-79.66
40863.0,0.78,0.3,-0.89,0.07,-0.98,0.19,26.45,-75.76,-79.62
40930.0,0.82,0.35,-0.85,0.06,-0.98,0.19,26.6,-75.92,-79.66
40996.0,0.81,0.44,-0.94,0.06,-0.98,0.18,26.76,-76.08,-79.74
41064.0,0.87,0.48,-0.97,0.06,-0.98,0.18,26.92,-76.24,-79.81
41131.0,0.86,0.51,-1.03,0.06,-0.98,0.18,27.05,-76.37,-79.83
41196.0,0.85,0.45,-1.02,0.06,-0.98,0.18,27.17,-76.49,-79.85
41265.0,0.78,0.45,-0.99,0.07,-0.98,0.18,27.28,-76.6,-79.83
41330.0,0.79,0.37,-0.98,0.06,-0.98,0.19,27.38,-76.7,-79.81
41397.0,0.77,0.37,-0.9,0.06,-0.98,0.18,27.48,-76.8,-79.81
41464.0,0.84,0.42,-0.92,0.06,-0.98,0.18,27.57,-76.89,-79.78
41531.0,0.85,0.44,-0.93,0.06,-0.98,0.18,27.69,-77.0,-79.84
41597.0,0.85,0.41,-0.89,0.05,-0.98,0.18,27.78,-77.1,-79.86
41665.0,0.86,0.46,-0.95,0.07,-0.98,0.18,27.86,-77.18,-79.85
41732.0,0.87,0.31,-0.91,0.06,-0.98,0.18,27.94,-77.26,-79.85
41798.0,0.9,0.38,-0.96,0.06,-0.98,0.19,27.98,-77.3,-79.77
41866.0,0.88,0.56,-1.02,0.05,-0.98,0.18,28.06,-77.38,-79.8
41932.0,0.82,0.86,-1.15,0.04,-0.98,0.17,28.18,-77.5,-79.92
41998.0,0.86,1.08,-1.37,0.07,-0.98,0.18,28.21,-77.53,-79.83
42066.0,0.91,0.73,-1.2,0.07,-0.98,0.18,28.23,-77.55,-79.72
42132.0,0.84,0.61,-1.02,0.06,-0.98,0.18,28.28,-77.6,-79.71
42199.0,0.97,0.44,-1.08,0.07,-0.98,0.18,28.32,-77.64,-79.69
42267.0,0.98,0.29,-1.11,0.07,-0.98,0.18,28.34,-77.65,-79.61
42333.0,0.91,0.16,-1.15,0.07,-0.98,0.19,28.34,-77.66,-79.51
42399.0,0.91,-0.05,-0.92,0.09,-0.98,0.19,28.3,-77.62,-79.34
42467.0,0.87,-0.12,-0.7,0.08,-0.98,0.19,28.3,-77.62,-79.24
42533.0,0.89,0.09,-0.58,0.07,-0.98,0.18,28.32,-77.64,-79.21
42600.0,0.79,0.17,-0.63,0.05,-0.98,0.18,28.37,-77.69,-79.26
42668.0,0.85,0.21,-0.75,0.06,-0.99,0.17,28.44,-77.76,-79.35
42734.0,0.84,0.53,-0.86,0.05,-0.98,0.17,28.52,-77.84,-79.45
42801.0,0.85,0.66,-0.95,0.06,-0.98,0.18,28.56,-77.88,-79.48
42868.0,0.76,0.55,-0.99,0.06,-0.97,0.18,28.59,-77.91,-79.45
42935.0,0.82,0.35,-0.96,0.06,-0.97,0.18,28.6,-77.92,-79.41
43000.0,0.8,0.46,-1.01,0.06,-0.97,0.18,28.63,-77.95,-79.4
43069.0,1.0,0.34,-0.98,0.06,-0.99,0.15,28.75,-78.07,-79.63
43134.0,1.24,0.5,-0.98,0.06,-0.98,0.18,28.76,-78.08,-79.61
43201.0,1.02,0.69,-1.12,0.05,-0.97,0.2,28.69,-78.01,-79.41
43269.0,0.89,0.83,-1.15,0.07,-0.98,0.19,28.65,-77.97,-79.25
43335.0,0.81,0.53,-0.98,0.07,-0.98,0.18,28.64,-77.96,-79.19
43402.0,0.89,0.44,-1.05,0.07,-0.98,0.18,28.67,-77.99,-79.22
43469.0,0.87,0.59,-1.02,0.06,-0.97,0.18,28.68,-78.0,-79.19
43536.0,0.76,0.65,-1.24,0.06,-0.98,0.18,28.69,-78.01,-79.17
43602.0,0.85,0.48,-1.1,0.1,-0.98,0.19,28.63,-77.95,-79.0
43670.0,0.87,0.22,-0.92,0.07,-0.98,0.17,28.69,-78.01,-79.11
43737.0,0.93,0.14,-0.86,0.06,-0.98,0.18,28.69,-78.01,-79.1
43802.0,0.86,0.25,-0.92,0.06,-0.98,0.19,28.67,-77.99,-79.03
43871.0,0.84,0.24,-0.9,0.06,-0.98,0.18,28.67,-77.99,-79.01
43937.0,0.83,0.47,-0.98,0.07,-0.98,0.17,28.71,-78.03,-79.07
44003.0,0.89,0.52,-0.7,0.1,-0.98,0.18,28.65,-77.97,-78.92
44071.0,0.79,0.34,-0.28,0.04,-0.98,0.18,28.69,-78.01,-78.99
44135.0,0.85,0.0,-0.7,0.04,-0.99,0.17,28.77,-78.09,-79.15
44204.0,0.77,0.32,-1.08,0.04,-0.98,0.19,28.78,-78.1,-79.15
44271.0,0.73,0.5,-1.05,0.07,-0.98,0.18,28.8,-78.12,-79.16
44336.0,0.58,0.59,-1.08,0.06,-0.97,0.19,28.8,-78.12,-79.11
44403.0,0.57,0.46,-1.08,0.06,-0.98,0.17,28.88,-78.2,-79.26
44470.0,0.48,0.44,-1.04,0.05,-0.98,0.17,28.96,-78.28,-79.38
44536.0,0.75,0.49,-1.02,0.08,-0.98,0.16,29.0,-78.32,-79.44
44604.0,0.88,0.6,-0.85,0.04,-0.99,0.15,29.12,-78.44,-79.68
44670.0,0.88,0.51,-1.08,0.08,-0.98,0.16,29.12,-78.44,-79.64
44737.0,1.06,0.34,-0.83,0.06,-0.98,0.18,29.11,-78.43,-79.59
44805.0,0.89,0.45,-0.95,0.04,-0.98,0.17,29.15,-78.47,-79.65
44871.0,0.89,0.42,-1.09,0.07,-0.98,0.17,29.15,-78.47,-79.61
44937.0,1.08,0.1,-0.92,0.08,-0.98,0.17,29.13,-78.45,-79.54
45005.0,1.14,-0.03,-0.8,0.08,-0.99,0.16,29.14,-78.46,-79.57
45071.0,1.15,-0.11,-0.62,0.05,-0.98,0.18,29.14,-78.46,-79.55
45137.0,0.84,-0.29,-0.63,0.06,-0.99,0.18,29.11,-78.43,-79.46
45205.0,0.85,0.35,-0.79,0.03,-0.99,0.19,29.09,-78.41,-79.39
45272.0,0.52,0.41,-1.21,0.03,-0.98,0.18,29.14,-78.46,-79.45
45338.0,0.47,0.88,-1.66,0.05,-0.99,0.17,29.21,-78.52,-79.55
45406.0,0.26,0.96,-1.61,0.1,-0.97,0.16,29.24,-78.56,-79.54
45472.0,0.43,0.45,-1.27,0.06,-0.99,0.16,29.32,-78.64,-79.68
45538.0,0.45,0.62,-1.05,0.08,-0.98,0.15,29.38,-78.7,-79.75
45606.0,0.41,0.68,-0.92,0.06,-0.98,0.14,29.52,-78.84,-80.02
45673.0,0.48,1.03,-1.04,0.07,-0.98,0.15,29.59,-78.91,-80.11
45739.0,0.57,0.78,-1.08,0.07,-0.99,0.15,29.68,-79.0,-80.24
45806.0,0.63,1.2,-1.28,0.06,-0.98,0.13,29.83,-79.15,-80.53
45873.0,0.67,1.05,-1.37,0.08,-0.99,0.14,29.9,-79.22,-80.62
45939.0,0.72,0.47,-1.09,0.09,-0.98,0.14,29.94,-79.26,-80.62
46007.0,0.78,0.31,-0.95,0.07,-0.98,0.14,30.02,-79.34,-80.74
46073.0,0.79,0.21,-1.0,0.07,-0.98,0.14,30.09,-79.4,-80.82
46139.0,0.85,0.31,-0.95,0.09,-0.98,0.13,30.14,-79.46,-80.88
46208.0,0.78,0.33,-0.92,0.08,-0.98,0.15,30.15,-79.47,-80.84
46273.0,0.82,0.34,-0.89,0.08,-0.98,0.14,30.21,-79.53,-80.9
46340.0,0.82,0.39,-0.83,0.07,-0.99,0.14,30.26,-79.58,-80.96
46407.0,0.8,0.3,-0.86,0.08,-0.99,0.13,30.33,-79.65,-81.05
46474.0,0.79,0.4,-0.87,0.08,-0.99,0.14,30.37,-79.69,-81.06
NaN,0.6,0.27,-1.07,-0.06,-0.96,0.29,-28.46,-71.83,-72.93
47277.0,0.83,0.32,-0.95,0.07,-0.99,0.13,30.81,-80.13,-81.4
47342.0,0.89,0.46,-0.99,0.07,-0.98,0.14,30.82,-80.14,-81.37
47411.0,0.84,0.4,-0.99,0.07,-0.98,0.13,30.85,-80.17,-81.41
47476.0,0.89,0.34,-0.98,0.08,-0.99,0.13,30.87,-80.19,-81.4
47543.0,0.89,0.37,-0.99,0.07,-0.99,0.13,30.89,-80.21,-81.41
47610.0,0.9,0.38,-0.96,0.07,-0.98,0.13,30.91,-80.23,-81.43
47677.0,0.89,0.4,-0.95,0.08,-0.99,0.13,30.94,-80.26,-81.45
